File: Raman_data/HDPE.csv
203.235,0.275482
205.388,0.191308
207.54,0.188126
209.693,0.22095
211.846,0.217579
213.999,0.199071
216.152,0.186193
218.305,0.184105
220.458,0.183456
222.611,0.144172
224.764,0.150966
226.917,0.196979
229.07,0.159815
231.223,0.14224
233.376,0.188875
235.529,0.198116
237.682,0.188697
239.835,0.154618
241.987,0.128543
244.14,0.115476
246.293,0.117068
248.446,0.13142
250.599,0.16404
252.752,0.141183
254.905,0.119197
257.058,0.129599
259.211,0.124607
261.364,0.10466
263.517,0.102128
265.67,0.0981129
267.823,0.0925451
269.976,0.0933801
272.129,0.0869976
274.281,0.0659542
276.434,0.0812445
278.587,0.094709
280.74,0.0659647
282.893,0.0842155
285.046,0.11429
287.199,0.0683041
289.352,0.0531156
291.505,0.0571344
293.658,0.0467055
295.811,0.0550019
297.964,0.0884844
300.117,0.0883393
302.27,0.0910974
304.423,0.121107
306.576,0.10759
308.728,0.0710272
310.881,0.0730089
313.034,0.0569815
315.187,0.0321841
317.34,0.0814505
319.493,0.0932241
321.646,0.0465628
323.799,0.0989429
325.952,0.133188
328.105,0.101479
330.258,0.0713985
332.411,0.045056
334.564,0.0240448
336.717,0.0601422
338.87,0.114072
341.023,0.0707027
343.175,0.072604
345.328,0.0940703
347.481,0.0758945
349.634,0.0852973
351.787,0.134897
353.94,0.085211
356.093,0.0596383
358.246,0.081491
360.399,0.0667335
362.552,0.0555676
364.705,0.0981158
366.858,0.121234
369.011,0.135649
371.164,0.112361
373.317,0.0863937
375.469,0.0657336
377.622,0.0522559
379.775,0.0626846
381.928,0.084919
384.081,0.100681
386.234,0.106475
388.387,0.0768873
390.54,0.0585695
392.693,0.0632571
394.846,0.090359
396.999,0.0831547
399.152,0.0787004
401.305,0.107853
403.458,0.11714
405.611,0.111891
407.764,0.0801278
409.916,0.0669997
412.069,0.0700146
414.222,0.109727
416.375,0.110177
418.528,0.0730904
420.681,0.0714719
422.834,0.0787364
424.987,0.0885118
427.14,0.0886928
429.293,0.0754076
431.446,0.0525839
433.599,0.0755817
435.752,0.0800106
437.905,0.0144826
440.058,0.047711
442.21,0.0723093
444.363,0.0472231
446.516,0.0833043
448.669,0.116763
450.822,0.0941649
452.975,0.0803436
455.128,0.0689568
457.281,0.0523271
459.434,0.0636797
461.587,0.0785455
463.74,0.0858489
465.893,0.0850535
468.046,0.0808982
470.199,0.0886929
472.352,0.0854065
474.505,0.0719053
476.657,0.0766682
478.81,0.0674707
480.963,0.0500624
483.116,0.0967116
485.269,0.105174
487.422,0.0776243
489.575,0.101683
491.728,0.106361
493.881,0.0685395
496.034,0.0492298
498.187,0.0550721
500.34,0.0711392
502.493,0.0762981
504.646,0.0659488
506.799,0.0378522
508.951,0.0538752
511.104,0.067865
513.257,0.0769749
515.41,0.0688981
517.563,0.0558642
519.716,0.0515462
521.869,0.0773729
524.022,0.0894463
526.175,0.0529188
528.328,0.0755676
530.481,0.0882726
532.634,0.0558137
534.787,0.0637295
536.94,0.0770453
539.093,0.102914
541.246,0.0630104
543.398,0.038553
545.551,0.0572324
547.704,0.0648533
549.857,0.0639323
552.01,0.0528204
554.163,0.0809642
556.316,0.095923
558.469,0.043082
560.622,0.0494981
562.775,0.0578644
564.928,0.0620148
567.081,0.0844553
569.234,0.0984049
571.387,0.0688822
573.54,0.0625902
575.693,0.0640496
577.845,0.0689776
579.998,0.0512828
582.151,0.0411887
584.304,0.0470918
586.457,0.0502591
588.61,0.0470974
590.763,0.0334524
592.916,0.0337445
595.069,0.0449314
597.222,0.0696658
599.375,0.049686
601.528,0.0297719
603.681,0.0275917
605.834,0.0342354
607.987,0.038971
610.139,0.041021
612.292,0.0521457
614.445,0.0531968
616.598,0.0307792
618.751,0.0383203
620.904,0.0454488
623.057,0.049655
625.21,0.0296471
627.363,0.0310162
629.516,0.0403847
631.669,0.0300433
633.822,0.0448989
635.975,0.0743552
638.128,0.0720348
640.281,0.068508
642.434,0.0620255
644.586,0.034611
646.739,0.0380521
648.892,0.0484195
651.045,0.0821929
653.198,0.0653716
655.351,0.031923
657.504,0.0311424
659.657,0.0328555
661.81,0.0413128
663.963,0.0671046
666.116,0.0634971
668.269,0.0427585
670.422,0.0195477
672.575,0.0423856
674.728,0.0561057
676.88,0.0437647
679.033,0.0390382
681.186,0.0233913
683.339,0
685.492,0.0111389
687.645,0.0234519
689.798,0.0363846
691.951,0.0512888
694.104,0.0593638
696.257,0.0612612
698.41,0.0560037
700.563,0.0480014
702.716,0.0386292
704.869,0.0285116
707.022,0.0481303
709.175,0.066979
711.327,0.0597966
713.48,0.0527482
715.633,0.0513433
717.786,0.0555622
719.939,0.0658602
722.092,0.0742113
724.245,0.0795668
726.398,0.105479
728.551,0.1005
730.704,0.0566301
732.857,0.050903
735.01,0.0679307
737.163,0.0911705
739.316,0.0695049
741.469,0.0653532
743.621,0.0639432
745.774,0.0546036
747.927,0.0605251
750.08,0.0669258
752.233,0.0704051
754.386,0.059232
756.539,0.038113
758.692,0.0222429
760.845,0.0813659
762.998,0.0816005
765.151,0.035431
767.304,0.0284402
769.457,0.0602852
771.61,0.0990385
773.763,0.0840443
775.916,0.0652213
778.068,0.0435919
780.221,0.0241686
782.374,0.0734661
784.527,0.0997864
786.68,0.0956276
788.833,0.0732244
790.986,0.0733361
793.139,0.0816693
795.292,0.133098
797.445,0.116483
799.598,0.0802386
801.751,0.0796278
803.904,0.0754141
806.057,0.0638037
808.21,0.0453635
810.363,0.0687101
812.515,0.0772325
814.668,0.0716123
816.821,0.104837
818.974,0.10155
821.127,0.0778654
823.28,0.0742096
825.433,0.0893635
827.586,0.103188
829.739,0.108168
831.892,0.114831
834.045,0.124762
836.198,0.138706
838.351,0.120791
840.504,0.122525
842.657,0.129709
844.809,0.122537
846.962,0.118608
849.115,0.121563
851.268,0.129111
853.421,0.10852
855.574,0.106191
857.727,0.126966
859.88,0.144288
862.033,0.143555
864.186,0.13665
866.339,0.141358
868.492,0.124113
870.645,0.114661
872.798,0.127949
874.951,0.161446
877.104,0.171004
879.256,0.161471
881.409,0.158383
883.562,0.144374
885.715,0.138542
887.868,0.158077
890.021,0.125268
892.174,0.102131
894.327,0.102939
896.48,0.108073
898.633,0.121754
900.786,0.139474
902.939,0.130398
905.092,0.114342
907.245,0.0889837
909.398,0.0618325
911.55,0.0759391
913.703,0.0756449
915.856,0.0600968
918.009,0.0607653
920.162,0.0614437
922.315,0.062322
924.468,0.0640013
926.621,0.0802718
928.774,0.0764084
930.927,0.0488255
933.08,0.0614838
935.233,0.0641098
937.386,0.0563339
939.539,0.0379584
941.692,0.0527262
943.845,0.052686
945.997,0.0316571
948.15,0.056497
950.303,0.0489523
952.456,0.0378751
954.609,0.057129
956.762,0.0499322
958.915,0.0423948
961.068,0.0426795
963.221,0.0484508
965.374,0.0579343
967.527,0.0660207
969.68,0.0662911
971.833,0.0591474
973.986,0.0422811
976.139,0.0278316
978.291,0.0388111
980.444,0.050285
982.597,0.0535184
984.75,0.0293745
986.903,0.0505717
989.056,0.05706
991.209,0.0518961
993.362,0.0703565
995.515,0.0783886
997.668,0.0793266
999.821,0.0625721
1001.97,0.0924391
1004.13,0.0980804
1006.28,0.0848233
1008.43,0.078777
1010.59,0.0973484
1012.74,0.104842
1014.89,0.0848511
1017.04,0.101078
1019.2,0.0869281
1021.35,0.0694189
1023.5,0.124259
1025.66,0.119808
1027.81,0.110301
1029.96,0.107681
1032.11,0.140276
1034.27,0.170879
1036.42,0.204607
1038.57,0.247459
1040.73,0.276231
1042.88,0.321707
1045.03,0.386774
1047.19,0.448388
1049.34,0.483771
1051.49,0.526274
1053.64,0.58974
1055.8,0.660358
1057.95,0.66586
1060.1,0.670144
1062.26,0.706396
1064.41,0.695506
1066.56,0.686324
1068.71,0.681099
1070.87,0.673005
1073.02,0.61742
1075.17,0.583146
1077.33,0.574589
1079.48,0.528781
1081.63,0.492162
1083.79,0.467664
1085.94,0.450976
1088.09,0.427871
1090.24,0.390227
1092.4,0.355009
1094.55,0.341368
1096.7,0.315328
1098.86,0.295291
1101.01,0.290206
1103.16,0.339212
1105.31,0.380647
1107.47,0.41727
1109.62,0.451373
1111.77,0.482468
1113.93,0.53837
1116.08,0.598013
1118.23,0.639874
1120.39,0.727805
1122.54,0.731159
1124.69,0.722479
1126.84,0.797759
1129,0.742854
1131.15,0.694555
1133.3,0.668369
1135.46,0.635048
1137.61,0.603937
1139.76,0.569073
1141.91,0.521675
1144.07,0.43119
1146.22,0.408608
1148.37,0.393948
1150.53,0.36742
1152.68,0.292361
1154.83,0.245112
1156.99,0.217318
1159.14,0.196861
1161.29,0.157616
1163.44,0.146533
1165.6,0.142427
1167.75,0.136865
1169.9,0.140807
1172.06,0.144162
1174.21,0.144931
1176.36,0.125166
1178.51,0.0943684
1180.67,0.0914119
1182.82,0.0935891
1184.97,0.0650144
1187.13,0.0669001
1189.28,0.0799625
1191.43,0.0971851
1193.59,0.0354011
1195.74,0.0429751
1197.89,0.0653958
1200.04,0.0853091
1202.2,0.0701452
1204.35,0.0676764
1206.5,0.0593151
1208.66,0.0474217
1210.81,0.0528663
1212.96,0.0583912
1215.11,0.0567375
1217.27,0.0472039
1219.42,0.0738858
1221.57,0.0748628
1223.73,0.0802873
1225.88,0.0935982
1228.03,0.0778196
1230.18,0.0735701
1232.34,0.0766571
1234.49,0.0825114
1236.64,0.0820596
1238.8,0.100044
1240.95,0.104607
1243.1,0.0921425
1245.26,0.122177
1247.41,0.0927915
1249.56,0.0909604
1251.71,0.122766
1253.87,0.116967
1256.02,0.150095
1258.17,0.161693
1260.33,0.152811
1262.48,0.170575
1264.63,0.174772
1266.78,0.197224
1268.94,0.268331
1271.09,0.327771
1273.24,0.385862
1275.4,0.458765
1277.55,0.544552
1279.7,0.623323
1281.86,0.676064
1284.01,0.745523
1286.16,0.814844
1288.31,0.854138
1290.47,0.941951
1292.62,0.955274
1294.77,0.955257
1296.93,0.974393
1299.08,0.947407
1301.23,0.869367
1303.38,0.804394
1305.54,0.783591
1307.69,0.726649
1309.84,0.660305
1312,0.595579
1314.15,0.531657
1316.3,0.435712
1318.46,0.40024
1320.61,0.35324
1322.76,0.28457
1324.91,0.254097
1327.07,0.238989
1329.22,0.212113
1331.37,0.169566
1333.53,0.136789
1335.68,0.133283
1337.83,0.108751
1339.98,0.0930597
1342.14,0.13056
1344.29,0.134155
1346.44,0.119788
1348.6,0.11085
1350.75,0.12153
1352.9,0.100612
1355.06,0.0836096
1357.21,0.0959124
1359.36,0.127917
1361.51,0.0893922
1363.67,0.11051
1365.82,0.107815
1367.97,0.0938569
1370.13,0.102045
1372.28,0.0956994
1374.43,0.100107
1376.58,0.10276
1378.74,0.0859332
1380.89,0.0744336
1383.04,0.0886526
1385.2,0.0918863
1387.35,0.075468
1389.5,0.0727042
1391.66,0.0938999
1393.81,0.101027
1395.96,0.107025
1398.11,0.142784
1400.27,0.149355
1402.42,0.176476
1404.57,0.217124
1406.73,0.246186
1408.88,0.267337
1411.03,0.324789
1413.18,0.355988
1415.34,0.383545
1417.49,0.503348
1419.64,0.55661
1421.8,0.598009
1423.95,0.643295
1426.1,0.707227
1428.26,0.809022
1430.41,0.849778
1432.56,0.908354
1434.71,0.97546
1436.87,1
1439.02,0.995007
1441.17,0.986598
1443.33,0.980573
1445.48,0.980017
1447.63,0.989164
1449.78,0.97506
1451.94,0.945908
1454.09,0.911128
1456.24,0.869191
1458.4,0.827372
1460.55,0.770804
1462.7,0.734391
1464.85,0.712102
1467.01,0.627134
1469.16,0.573562
1471.31,0.516681
1473.47,0.458946
1475.62,0.411568
1477.77,0.372465
1479.93,0.318051
1482.08,0.269681
1484.23,0.240545
1486.38,0.227462
1488.54,0.214803
1490.69,0.192598
1492.84,0.166979
1495,0.144851
1497.15,0.120953
1499.3,0.0974628
1501.45,0.0677584
1503.61,0.057133
1505.76,0.0652839
1507.91,0.0580987
1510.07,0.0513108
1512.22,0.0590845
1514.37,0.0720903
1516.53,0.0660081
1518.68,0.0285923
1520.83,0.0498634
1522.98,0.0582904
1525.14,0.0440708
1527.29,0.0533003
1529.44,0.0537436
1531.6,0.0506464
1533.75,0.0458621
1535.9,0.0397605
1538.05,0.0281221
1540.21,0.0340111
1542.36,0.0407836
1544.51,0.0505035
1546.67,0.063332
1548.82,0.0621569
1550.97,0.042679
1553.13,0.050669
1555.28,0.0589422
1557.43,0.035716
1559.58,0.0485319
1561.74,0.0592546
1563.89,0.0628467
1566.04,0.0663222
1568.2,0.0768168
1570.35,0.0765133
1572.5,0.0592699
1574.65,0.0634563
1576.81,0.0748783
1578.96,0.0692428
1581.11,0.0618721
1583.27,0.061228
1585.42,0.0605882
1587.57,0.0544137
1589.73,0.0421843
1591.88,0.085334
1594.03,0.0954731
1596.18,0.0778863
1598.34,0.0564258
1600.49,0.0709184
1602.64,0.0506538
1604.8,0.0722097
1606.95,0.0747474
1609.1,0.0618745
1611.25,0.0600467
1613.41,0.106951
1615.56,0.0863442
1617.71,0.0803223
1619.87,0.0778415
1622.02,0.0638037
1624.17,0.0631862
1626.33,0.0804318
1628.48,0.0764136
1630.63,0.07216
1632.78,0.0785578
1634.94,0.0756575
1637.09,0.0703086
1639.24,0.0659361
1641.4,0.0687003
1643.55,0.0730097
1645.7,0.0613166
1647.85,0.0637173
1650.01,0.0637951
1652.16,0.0668535
1654.31,0.0710278
1656.47,0.0717191
1658.62,0.0687414
1660.77,0.0859231
1662.93,0.0925133
1665.08,0.0942941
1667.23,0.0984134
1669.38,0.0959054
1671.54,0.0839676
1673.69,0.0766658
1675.84,0.0804137
1678,0.0865376
1680.15,0.0590898
1682.3,0.070075
1684.45,0.0702666
1686.61,0.0745392
1688.76,0.0814024
1690.91,0.079741
1693.07,0.0792382
1695.22,0.0767725
1697.37,0.053437
1699.52,0.0535154
1701.68,0.0902027
1703.83,0.050502
1705.98,0.0791809
1708.14,0.0791801
1710.29,0.0619821
1712.44,0.0487087
1714.6,0.0504241
1716.75,0.0858064
1718.9,0.0769045
1721.05,0.0627038
1723.21,0.0653883
1725.36,0.0767011
1727.51,0.0565715
1729.67,0.0634685
1731.82,0.0774316
1733.97,0.0739281
1736.12,0.0656756
1738.28,0.072173
1740.43,0.0696288
1742.58,0.0693837
1744.74,0.0530512
1746.89,0.0520771
1749.04,0.0625164
1751.2,0.0601972
1753.35,0.0630028
1755.5,0.0601785
1757.65,0.0702126
1759.81,0.068527
1761.96,0.0454517
1764.11,0.0488042
1766.27,0.0651711
1768.42,0.0636985
1770.57,0.0694235
1772.72,0.0738415
1774.88,0.0563414
1777.03,0.0293247
1779.18,0.0465595
1781.34,0.033503
1783.49,0.0580859
1785.64,0.0794999
1787.8,0.046641
1789.95,0.0605893
1792.1,0.0679998
1794.25,0.0465557
1796.41,0.0451629
1798.56,0.0545985
1800.71,0.0577479
1802.87,0.053278
1805.02,0.0394682
1807.17,0.0532459
1809.32,0.0599256
1811.48,0.0550054
1813.63,0.0504289
1815.78,0.075166
1817.94,0.0540029
1820.09,0.0534165
1822.24,0.0461953
1824.4,0.0336127
1826.55,0.0343283
1828.7,0.0571604
1830.85,0.0594078
1833.01,0.0650036
1835.16,0.0603812
1837.31,0.0568466
1839.47,0.0609619
1841.62,0.0617877
1843.77,0.0496319
1845.92,0.0702573
1848.08,0.0744595
1850.23,0.065342
1852.38,0.0611844
1854.54,0.071827
1856.69,0.0609974
1858.84,0.053222
1861,0.0622385
1863.15,0.0640162
1865.3,0.0550052
1867.45,0.0482933
1869.61,0.0375779
1871.76,0.0596581
1873.91,0.0514554
1876.07,0.057609
1878.22,0.0631597
1880.37,0.0589865
1882.52,0.0612266
1884.68,0.0440283
1886.83,0.0480394
1888.98,0.0605619
1891.14,0.0651322
1893.29,0.0606958
1895.44,0.0614577
1897.6,0.0773086
1899.75,0.0601819
1901.9,0.0408832
1904.05,0.0580834
1906.21,0.0669487
1908.36,0.0502297
1910.51,0.0434913
1912.67,0.0444212
1914.82,0.0556591
1916.97,0.0688997
1919.12,0.0734332
1921.28,0.0672174
1923.43,0.0449611
1925.58,0.0383169
1927.74,0.057567
1929.89,0.0333621
1932.04,0.0526323
1934.19,0.075287
1936.35,0.0799084
1938.5,0.0719272
1940.65,0.065644
1942.81,0.0516668
1944.96,0.0511871
1947.11,0.0512708
1949.27,0.046513
1951.42,0.0517171
1953.57,0.0718027
1955.72,0.0749905
1957.88,0.0732022
1960.03,0.0547147
1962.18,0.07673
1964.34,0.0713409
1966.49,0.0394401
1968.64,0.0373817
1970.79,0.0826844
1972.95,0.0513637
1975.1,0.0758336
1977.25,0.0763184
1979.41,0.0667443
1981.56,0.072799
1983.71,0.0824263
1985.87,0.0477193
1988.02,0.0505758
1990.17,0.058703
1992.32,0.0631786
1994.48,0.0669114
1996.63,0.0603216
1998.78,0.0535528
2000.94,0.0653395
2003.09,0.0511724
2005.24,0.0384923
2007.39,0.0538148
2009.55,0.0551309
2011.7,0.0512553
2013.85,0.0537003
2016.01,0.0598292
2018.16,0.0610638
2020.31,0.0875338
2022.47,0.0644309
2024.62,0.0692461
2026.77,0.0446476
2028.92,0.0456897
2031.08,0.0582988
2033.23,0.0504089
2035.38,0.0581827
2037.54,0.0553014
2039.69,0.0633555
2041.84,0.0501733
2043.99,0.0512926
2046.15,0.0484943
2048.3,0.0448339
2050.45,0.0537004
2052.61,0.0484236
2054.76,0.0479273
2056.91,0.0470861
2059.07,0.0528089
2061.22,0.0421402
2063.37,0.0562099
2065.52,0.0769392
2067.68,0.055322
2069.83,0.0508171
2071.98,0.0663173
2074.14,0.0610331
2076.29,0.0739307
2078.44,0.0558749
2080.59,0.0480575
2082.75,0.0652674
2084.9,0.0867371
2087.05,0.062967
2089.21,0.0466214
2091.36,0.0762762
2093.51,0.074892
2095.67,0.0550346
2097.82,0.0600113
2099.97,0.0650032
2102.12,0.0643748
2104.28,0.0756016
2106.43,0.0575817
2108.58,0.0456861
2110.74,0.06164
2112.89,0.0753093
2115.04,0.0652357
2117.19,0.0695006
2119.35,0.0714036
2121.5,0.0605398
2123.65,0.07369
2125.81,0.0617252
2127.96,0.0569703
2130.11,0.0690354
2132.27,0.0546653
2134.42,0.0676495
2136.57,0.0675241
2138.72,0.0672045
2140.88,0.0760094
2143.03,0.0378023
2145.18,0.0324229
2147.34,0.0684274
2149.49,0.0470668
2151.64,0.061289
2153.79,0.0605358
2155.95,0.0592124
2158.1,0.0631372
2160.25,0.0743825
2162.41,0.0804709
2164.56,0.0674956
2166.71,0.0730527
2168.86,0.0748088
2171.02,0.0864165
2173.17,0.0712972
2175.32,0.0700304
2177.48,0.0721707
2179.63,0.0798465
2181.78,0.0908722
2183.94,0.0598951
2186.09,0.0702526
2188.24,0.0836079
2190.39,0.0588911
2192.55,0.068292
2194.7,0.0765658
2196.85,0.0681597
2199.01,0.0675513
2201.16,0.0696077
2203.31,0.0598726
2205.46,0.0730506
2207.62,0.069592
2209.77,0.0569799
2211.92,0.0626682
2214.08,0.0655943
2216.23,0.0661983
2218.38,0.0773963
2220.54,0.0692124
2222.69,0.0552997
2224.84,0.0620477
2226.99,0.0674324
2229.15,0.064447
2231.3,0.0624088
2233.45,0.0512928
2235.61,0.0732007
2237.76,0.0507674
2239.91,0.059171
2242.06,0.0591616
2244.22,0.0583549
2246.37,0.0624572
2248.52,0.0653781
2250.68,0.070994
2252.83,0.0562254
2254.98,0.0466935
2257.14,0.0577493
2259.29,0.0590029
2261.44,0.0500066
2263.59,0.0676792
2265.75,0.0654475
2267.9,0.0630826
2270.05,0.0607475
2272.21,0.0529293
2274.36,0.0612755
2276.51,0.0556878
2278.66,0.0655667
2280.82,0.0485384
2282.97,0.0618893
2285.12,0.0553157
2287.28,0.0651882
2289.43,0.0679045
2291.58,0.0660835
2293.74,0.0665624
2295.89,0.0617725
2298.04,0.0530474
2300.19,0.0666784
2302.35,0.073004
2304.5,0.0655034
2306.65,0.0510701
2308.81,0.0500272
2310.96,0.058243
2313.11,0.0618251
2315.26,0.0600381
2317.42,0.0515372
2319.57,0.0567228
2321.72,0.0684958
2323.88,0.0717637
2326.03,0.0728242
2328.18,0.069927
2330.34,0.0621309
2332.49,0.0524611
2334.64,0.0624042
2336.79,0.061431
2338.95,0.0544062
2341.1,0.0706607
2343.25,0.0654868
2345.41,0.0630759
2347.56,0.0647481
2349.71,0.0626595
2351.86,0.0607382
2354.02,0.0605698
2356.17,0.042211
2358.32,0.0354082
2360.48,0.0795316
2362.63,0.0763329
2364.78,0.0705678
2366.94,0.0568619
2369.09,0.0615939
2371.24,0.0657228
2373.39,0.0659336
2375.55,0.0591633
2377.7,0.0543747
2379.85,0.0735773
2382.01,0.0784885
2384.16,0.0659967
2386.31,0.0701814
2388.46,0.0508544
2390.62,0.0419039
2392.77,0.06034
2394.92,0.0750415
2397.08,0.047148
2399.23,0.0476087
2401.38,0.0661013
2403.53,0.0736299
2405.69,0.0707691
2407.84,0.0688433
2409.99,0.0671843
2412.15,0.073089
2414.3,0.0730743
2416.45,0.0666753
2418.61,0.0600318
2420.76,0.0568447
2422.91,0.0624713
2425.06,0.0531528
2427.22,0.0711836
2429.37,0.0803979
2431.52,0.0451536
2433.68,0.0581527
2435.83,0.0565578
2437.98,0.0523841
2440.13,0.0737304
2442.29,0.0592295
2444.44,0.050577
2446.59,0.0505304
2448.75,0.0647952
2450.9,0.0624433
2453.05,0.0573154
2455.21,0.0599002
2457.36,0.0677921
2459.51,0.0715939
2461.66,0.0608635
2463.82,0.0547957
2465.97,0.064316
2468.12,0.054776
2470.28,0.0670146
2472.43,0.062161
2474.58,0.0619148
2476.73,0.0527995
2478.89,0.0641765
2481.04,0.0594373
2483.19,0.0578042
2485.35,0.0511207
2487.5,0.0631121
2489.65,0.0510455
2491.81,0.0678334
2493.96,0.0584259
2496.11,0.0401842
2498.26,0.04913
2500.42,0.0670127
2502.57,0.064481
2504.72,0.0604855
2506.88,0.0649594
2509.03,0.0589582
2511.18,0.065833
2513.33,0.0564987
2515.49,0.076301
2517.64,0.0510747
2519.79,0.0621799
2521.95,0.0548029
2524.1,0.0684641
2526.25,0.0591466
2528.41,0.0475532
2530.56,0.0386641
2532.71,0.0366315
2534.86,0.0606491
2537.02,0.077827
2539.17,0.0450948
2541.32,0.0537627
2543.48,0.0660552
2545.63,0.0636177
2547.78,0.0457805
2549.93,0.0456144
2552.09,0.0462752
2554.24,0.0600241
2556.39,0.0630695
2558.55,0.0666761
2560.7,0.0708993
2562.85,0.064486
2565.01,0.0783763
2567.16,0.0816351
2569.31,0.0721057
2571.46,0.0691332
2573.62,0.0585812
2575.77,0.0540645
2577.92,0.0548129
2580.08,0.0631134
2582.23,0.0640271
2584.38,0.057763
2586.53,0.0789667
2588.69,0.0659494
2590.84,0.0542287
2592.99,0.0745176
2595.15,0.0589364
2597.3,0.0733712
2599.45,0.0635368
2601.61,0.0642953
2603.76,0.0652652
2605.91,0.0636115
2608.06,0.0620836
2610.22,0.0744584
2612.37,0.0713041
2614.52,0.0652543
2616.68,0.0635495
2618.83,0.0620164
2620.98,0.0526408
2623.13,0.0596307
2625.29,0.0520876
2627.44,0.0659281
2629.59,0.0651879
2631.75,0.0535857
2633.9,0.0695652
2636.05,0.0643247
2638.2,0.048384
2640.36,0.0564378
2642.51,0.0582615
2644.66,0.0580318
2646.82,0.0642172
2648.97,0.0584954
2651.12,0.0548369
2653.28,0.061398
2655.43,0.0531458
2657.58,0.0484238
2659.73,0.0513716
2661.89,0.0563014
2664.04,0.0620648
2666.19,0.0631918
2668.35,0.0528944
2670.5,0.0490757
2672.65,0.0730145
2674.8,0.0704412
2676.96,0.0671106
2679.11,0.0692922
2681.26,0.0651525
2683.42,0.0734342
2685.57,0.0599428
2687.72,0.0638422
2689.88,0.0771796
2692.03,0.071887
2694.18,0.0709103
2696.33,0.079528
2698.49,0.0686875
2700.64,0.0670308
2702.79,0.0811863
2704.95,0.0779822
2707.1,0.0753947
2709.25,0.0