File: Raman_data/LDPE.csv
200.826,0.054583
203.058,0.0466962
205.29,0.070448
207.522,0.0855786
209.754,0.0736032
211.986,0.107368
214.218,0.0895435
216.45,0.114697
218.683,0.139181
220.915,0.127066
223.147,0.147473
225.379,0.137517
227.611,0.156692
229.843,0.162101
232.075,0.168214
234.307,0.138703
236.539,0.132627
238.771,0.145771
241.003,0.115688
243.235,0.115075
245.467,0.140641
247.699,0.160004
249.931,0.155303
252.163,0.199114
254.395,0.217034
256.627,0.217851
258.86,0.25924
261.092,0.268566
263.324,0.271405
265.556,0.275017
267.788,0.265829
270.02,0.253027
272.252,0.236378
274.484,0.253784
276.716,0.265463
278.948,0.236792
281.18,0.220789
283.412,0.223691
285.644,0.176898
287.876,0.174834
290.108,0.143182
292.34,0.136152
294.572,0.102941
296.805,0.0720241
299.037,0.106059
301.269,0.0955116
303.501,0.0976385
305.733,0.113355
307.965,0.10876
310.197,0.11766
312.429,0.112212
314.661,0.122722
316.893,0.14568
319.125,0.110732
321.357,0.125138
323.589,0.1082
325.821,0.0841976
328.053,0.0948809
330.285,0.101985
332.517,0.0686633
334.749,0.0786851
336.982,0.0864265
339.214,0.0713734
341.446,0.0857349
343.678,0.0588847
345.91,0.136312
348.142,0.103176
350.374,0.112614
352.606,0.114991
354.838,0.109265
357.07,0.161618
359.302,0.130602
361.534,0.152642
363.766,0.15447
365.998,0.139812
368.23,0.12434
370.462,0.142235
372.694,0.221179
374.927,0.142912
377.159,0.126604
379.391,0.116743
381.623,0.138951
383.855,0.118782
386.087,0.130825
388.319,0.165508
390.551,0.151662
392.783,0.155242
395.015,0.173002
397.247,0.198258
399.479,0.240096
401.711,0.219418
403.943,0.257793
406.175,0.28718
408.407,0.277923
410.639,0.313278
412.871,0.322719
415.104,0.330076
417.336,0.325355
419.568,0.359513
421.8,0.386213
424.032,0.393482
426.264,0.416858
428.496,0.436258
430.728,0.457079
432.96,0.47702
435.192,0.502947
437.424,0.496633
439.656,0.499924
441.888,0.523348
444.12,0.550314
446.352,0.518522
448.584,0.533454
450.816,0.531096
453.049,0.513285
455.281,0.487103
457.513,0.467052
459.745,0.446569
461.977,0.403031
464.209,0.405736
466.441,0.346369
468.673,0.287885
470.905,0.324431
473.137,0.281216
475.369,0.279755
477.601,0.248866
479.833,0.264397
482.065,0.254164
484.297,0.260572
486.529,0.242565
488.761,0.213585
490.994,0.200519
493.226,0.135732
495.458,0.116214
497.69,0.0644931
499.922,0.0770405
502.154,0.0797551
504.386,0.0309374
506.618,0.057003
508.85,0.0716604
511.082,0.081659
513.314,0.0713204
515.546,0.102702
517.778,0.0909608
520.01,0.0856468
522.242,0.11618
524.474,0.150852
526.706,0.114096
528.938,0.129624
531.171,0.136343
533.403,0.149121
535.635,0.156043
537.867,0.132088
540.099,0.142265
542.331,0.136465
544.563,0.111377
546.795,0.119565
549.027,0.112941
551.259,0.110964
553.491,0.135459
555.723,0.112541
557.955,0.111427
560.187,0.104536
562.419,0.115268
564.651,0.131909
566.883,0.115672
569.116,0.1374
571.348,0.156796
573.58,0.161403
575.812,0.207167
578.044,0.231021
580.276,0.244345
582.508,0.250508
584.74,0.307982
586.972,0.365954
589.204,0.389778
591.436,0.405295
593.668,0.439869
595.9,0.450994
598.132,0.46806
600.364,0.471075
602.596,0.480183
604.828,0.483784
607.06,0.451118
609.293,0.448075
611.525,0.441788
613.757,0.42379
615.989,0.408577
618.221,0.391364
620.453,0.342549
622.685,0.328308
624.917,0.302176
627.149,0.286141
629.381,0.256211
631.613,0.218386
633.845,0.247811
636.077,0.211578
638.309,0.202212
640.541,0.185471
642.773,0.145777
645.005,0.141822
647.238,0.147191
649.47,0.140933
651.702,0.134095
653.934,0.125566
656.166,0.101557
658.398,0.102367
660.63,0.130887
662.862,0.127851
665.094,0.108171
667.326,0.104702
669.558,0.122616
671.79,0.139667
674.022,0.166861
676.254,0.235539
678.486,0.258944
680.718,0.290184
682.95,0.305645
685.182,0.280939
687.415,0.247298
689.647,0.143119
691.879,0.0973388
694.111,0.104215
696.343,0.0979148
698.575,0.10434
700.807,0.0953591
703.039,0.134896
705.271,0.135778
707.503,0.126931
709.735,0.144233
711.967,0.134473
714.199,0.144383
716.431,0.156158
718.663,0.140086
720.895,0.137716
723.127,0.115392
725.36,0.0981851
727.592,0.109139
729.824,0.0966334
732.056,0.0699392
734.288,0.0669978
736.52,0.0977034
738.752,0.138401
740.984,0.18532
743.216,0.247356
745.448,0.313994
747.68,0.32537
749.912,0.321301
752.144,0.302656
754.376,0.217245
756.608,0.140219
758.84,0.0298739
761.072,0.00625638
763.304,0.0451565
765.537,0.0427081
767.769,0.0446519
770.001,0.0828514
772.233,0.101013
774.465,0.110703
776.697,0.135029
778.929,0.136475
781.161,0.150128
783.393,0.146606
785.625,0.143599
787.857,0.172268
790.089,0.134196
792.321,0.122687
794.553,0.128027
796.785,0.129652
799.017,0.158232
801.249,0.128055
803.482,0.139743
805.714,0.154857
807.946,0.116692
810.178,0.112662
812.41,0.098947
814.642,0.0822804
816.874,0.0936958
819.106,0.108691
821.338,0.0996812
823.57,0.101508
825.802,0.0951351
828.034,0.11576
830.266,0.132543
832.498,0.145962
834.73,0.169122
836.962,0.183114
839.194,0.178693
841.426,0.223949
843.659,0.210493
845.891,0.231862
848.123,0.263904
850.355,0.272076
852.587,0.303133
854.819,0.270099
857.051,0.270531
859.283,0.289231
861.515,0.256607
863.747,0.247236
865.979,0.266547
868.211,0.226488
870.443,0.259477
872.675,0.237421
874.907,0.227258
877.139,0.235855
879.371,0.185829
881.604,0.168381
883.836,0.175163
886.068,0.153562
888.3,0.175207
890.532,0.140439
892.764,0.115127
894.996,0.12729
897.228,0.0833154
899.46,0.0801615
901.692,0.0983995
903.924,0.0817859
906.156,0.10405
908.388,0.078894
910.62,0.0859392
912.852,0.117146
915.084,0.0837135
917.316,0.134605
919.548,0.12411
921.781,0.104169
924.013,0.143079
926.245,0.142306
928.477,0.121739
930.709,0.15417
932.941,0.142696
935.173,0.164526
937.405,0.158261
939.637,0.140593
941.869,0.164267
944.101,0.139241
946.333,0.117755
948.565,0.149222
950.797,0.129216
953.029,0.149598
955.261,0.154324
957.493,0.0973558
959.726,0.114542
961.958,0.0902014
964.19,0.0721509
966.422,0.043928
968.654,0.0333465
970.886,0.0694649
973.118,0.0791755
975.35,0.064775
977.582,0.0695578
979.814,0.0689546
982.046,0.067015
984.278,0.0695567
986.51,0.0598834
988.742,0.0872935
990.974,0.0929182
993.206,0.0870658
995.438,0.130972
997.67,0.120211
999.903,0.139354
1002.13,0.150362
1004.37,0.128287
1006.6,0.156932
1008.83,0.169664
1011.06,0.148961
1013.29,0.16483
1015.53,0.14836
1017.76,0.135885
1019.99,0.14882
1022.22,0.121118
1024.46,0.139223
1026.69,0.117596
1028.92,0.108482
1031.15,0.118116
1033.38,0.0937513
1035.62,0.116614
1037.85,0.11333
1040.08,0.0938203
1042.31,0.107166
1044.54,0.111538
1046.78,0.105221
1049.01,0.146827
1051.24,0.226556
1053.47,0.315316
1055.7,0.412123
1057.94,0.484114
1060.17,0.533246
1062.4,0.522086
1064.63,0.484318
1066.86,0.464336
1069.1,0.377547
1071.33,0.340997
1073.56,0.343079
1075.79,0.378898
1078.02,0.445161
1080.26,0.481516
1082.49,0.517501
1084.72,0.517438
1086.95,0.470321
1089.18,0.433375
1091.42,0.37656
1093.65,0.281595
1095.88,0.231631
1098.11,0.196448
1100.35,0.175859
1102.58,0.157717
1104.81,0.132963
1107.04,0.129356
1109.27,0.151794
1111.51,0.135216
1113.74,0.153608
1115.97,0.182209
1118.2,0.23116
1120.43,0.322025
1122.67,0.340659
1124.9,0.376211
1127.13,0.365179
1129.36,0.337581
1131.59,0.309853
1133.83,0.230662
1136.06,0.189252
1138.29,0.194941
1140.52,0.185992
1142.75,0.199463
1144.99,0.184987
1147.22,0.147362
1149.45,0.149935
1151.68,0.115774
1153.91,0.0916178
1156.15,0.113108
1158.38,0.102233
1160.61,0.131494
1162.84,0.157486
1165.07,0.132768
1167.31,0.175548
1169.54,0.131407
1171.77,0.123231
1174,0.133447
1176.24,0.120539
1178.47,0.114795
1180.7,0.116625
1182.93,0.124943
1185.16,0.141219
1187.4,0.1202
1189.63,0.105301
1191.86,0.106206
1194.09,0.0876189
1196.32,0.100169
1198.56,0.089511
1200.79,0.0717575
1203.02,0.105933
1205.25,0.0840011
1207.48,0.0910854
1209.72,0.107721
1211.95,0.0785597
1214.18,0.0893641
1216.41,0.107576
1218.64,0.10147
1220.88,0.0942986
1223.11,0.0868954
1225.34,0.0893519
1227.57,0.0828992
1229.8,0.0904631
1232.04,0.103311
1234.27,0.0921643
1236.5,0.0929275
1238.73,0.117418
1240.96,0.117379
1243.2,0.12841
1245.43,0.13672
1247.66,0.152195
1249.89,0.178723
1252.13,0.167996
1254.36,0.171938
1256.59,0.186939
1258.82,0.177816
1261.05,0.185615
1263.29,0.204624
1265.52,0.19671
1267.75,0.22293
1269.98,0.217564
1272.21,0.223127
1274.45,0.256509
1276.68,0.244112
1278.91,0.277981
1281.14,0.31492
1283.37,0.35019
1285.61,0.50405
1287.84,0.66322
1290.07,0.783743
1292.3,0.902949
1294.53,0.931684
1296.77,0.935411
1299,0.884567
1301.23,0.784488
1303.46,0.693878
1305.69,0.624434
1307.93,0.581724
1310.16,0.538326
1312.39,0.468972
1314.62,0.433092
1316.85,0.421355
1319.09,0.379474
1321.32,0.370015
1323.55,0.362361
1325.78,0.361978
1328.01,0.350317
1330.25,0.361819
1332.48,0.402347
1334.71,0.436752
1336.94,0.473612
1339.18,0.479852
1341.41,0.455826
1343.64,0.408981
1345.87,0.34163
1348.1,0.246865
1350.34,0.216267
1352.57,0.174336
1354.8,0.120372
1357.03,0.155736
1359.26,0.134611
1361.5,0.121608
1363.73,0.132184
1365.96,0.117393
1368.19,0.1001
1370.42,0.0983813
1372.66,0.0907595
1374.89,0.0958135
1377.12,0.0830781
1379.35,0.112135
1381.58,0.101018
1383.82,0.0974555
1386.05,0.12336
1388.28,0.0981565
1390.51,0.109633
1392.74,0.132316
1394.98,0.0993736
1397.21,0.102389
1399.44,0.0994739
1401.67,0.107026
1403.9,0.131282
1406.14,0.139122
1408.37,0.1685
1410.6,0.221557
1412.83,0.263279
1415.07,0.301628
1417.3,0.344788
1419.53,0.378723
1421.76,0.436709
1423.99,0.502055
1426.23,0.575089
1428.46,0.6936
1430.69,0.803438
1432.92,0.916775
1435.15,0.994047
1437.39,0.991329
1439.62,0.992335
1441.85,0.976703
1444.08,0.927667
1446.31,0.901579
1448.55,0.849866
1450.78,0.814818
1453.01,0.776432
1455.24,0.711642
1457.47,0.66853
1459.71,0.579358
1461.94,0.510622
1464.17,0.467584
1466.4,0.373646
1468.63,0.326118
1470.87,0.283489
1473.1,0.215263
1475.33,0.202146
1477.56,0.159784
1479.79,0.140124
1482.03,0.15123
1484.26,0.12604
1486.49,0.121445
1488.72,0.12722
1490.96,0.100334
1493.19,0.113789
1495.42,0.0995565
1497.65,0.109576
1499.88,0.135397
1502.12,0.117065
1504.35,0.120603
1506.58,0.103539
1508.81,0.0949152
1511.04,0.10941
1513.28,0.12041
1515.51,0.171597
1517.74,0.259828
1519.97,0.35423
1522.2,0.485779
1524.44,0.580736
1526.67,0.609192
1528.9,0.585766
1531.13,0.484737
1533.36,0.36524
1535.6,0.27705
1537.83,0.19179
1540.06,0.163462
1542.29,0.127593
1544.52,0.0925823
1546.76,0.101148
1548.99,0.0934475
1551.22,0.0932413
1553.45,0.11372
1555.68,0.0952881
1557.92,0.100493
1560.15,0.104658
1562.38,0.0972245
1564.61,0.122468
1566.85,0.104503
1569.08,0.0965866
1571.31,0.119416
1573.54,0.107578
1575.77,0.120619
1578.01,0.106489
1580.24,0.118871
1582.47,0.142563
1584.7,0.132682
1586.93,0.148249
1589.17,0.137857
1591.4,0.128638
1593.63,0.151401
1595.86,0.134693
1598.09,0.143223
1600.33,0.156425
1602.56,0.132367
1604.79,0.15037
1607.02,0.168784
1609.25,0.156427
1611.49,0.169287
1613.72,0.152259
1615.95,0.137018
1618.18,0.122394
1620.41,0.0939409
1622.65,0.0920869
1624.88,0.0667409
1627.11,0.0607909
1629.34,0.0809614
1631.57,0.0675787
1633.81,0.0654844
1636.04,0.0776503
1638.27,0.0771245
1640.5,0.0916095
1642.74,0.091972
1644.97,0.088393
1647.2,0.110312
1649.43,0.103402
1651.66,0.10765
1653.9,0.116213
1656.13,0.116303
1658.36,0.125646
1660.59,0.124627
1662.82,0.115051
1665.06,0.13462
1667.29,0.113968
1669.52,0.111427
1671.75,0.135094
1673.98,0.127071
1676.22,0.146649
1678.45,0.137676
1680.68,0.127419
1682.91,0.140465
1685.14,0.12585
1687.38,0.103718
1689.61,0.08991
1691.84,0.0837516
1694.07,0.0911385
1696.3,0.0839543
1698.54,0.0793842
1700.77,0.102917
1703,0.0991889
1705.23,0.105899
1707.46,0.120111
1709.7,0.095742
1711.93,0.117882
1714.16,0.119516
1716.39,0.101323
1718.62,0.122024
1720.86,0.0993708
1723.09,0.136898
1725.32,0.154839
1727.55,0.115861
1729.79,0.143763
1732.02,0.133619
1734.25,0.13499
1736.48,0.14654
1738.71,0.129952
1740.95,0.138085
1743.18,0.139063
1745.41,0.118729
1747.64,0.140461
1749.87,0.132866
1752.11,0.105247
1754.34,0.125064
1756.57,0.108269
1758.8,0.125318
1761.03,0.134717
1763.27,0.124135
1765.5,0.141344
1767.73,0.132348
1769.96,0.113045
1772.19,0.137889
1774.43,0.121078
1776.66,0.113412
1778.89,0.114585
1781.12,0.0945788
1783.35,0.103038
1785.59,0.0891426
1787.82,0.0872892
1790.05,0.108069
1792.28,0.09209
1794.51,0.103164
1796.75,0.108811
1798.98,0.107088
1801.21,0.122775
1803.44,0.112688
1805.68,0.093054
1807.91,0.0934913
1810.14,0.0933192
1812.37,0.0988066
1814.6,0.102106
1816.84,0.0903454
1819.07,0.117313
1821.3,0.125099
1823.53,0.129929
1825.76,0.14541
1828,0.129006
1830.23,0.136666
1832.46,0.138638
1834.69,0.110955
1836.92,0.123837
1839.16,0.103418
1841.39,0.114225
1843.62,0.127359
1845.85,0.105584
1848.08,0.121231
1850.32,0.124923
1852.55,0.121795
1854.78,0.143412
1857.01,0.130499
1859.24,0.130376
1861.48,0.136889
1863.71,0.112747
1865.94,0.11963
1868.17,0.108172
1870.4,0.0981518
1872.64,0.103571
1874.87,0.0839864
1877.1,0.0902733
1879.33,0.106455
1881.57,0.0860652
1883.8,0.108957
1886.03,0.118016
1888.26,0.108371
1890.49,0.130107
1892.73,0.11276
1894.96,0.0995436
1897.19,0.114568
1899.42,0.0933134
1901.65,0.105726
1903.89,0.107956
1906.12,0.092949
1908.35,0.113463
1910.58,0.105365
1912.81,0.125114
1915.05,0.145289
1917.28,0.12612
1919.51,0.14689
1921.74,0.137926
1923.97,0.124998
1926.21,0.1515
1928.44,0.125165
1930.67,0.114325
1932.9,0.119093
1935.13,0.106695
1937.37,0.119027
1939.6,0.128134
1941.83,0.116271
1944.06,0.129767
1946.29,0.111981
1948.53,0.126512
1950.76,0.146065
1952.99,0.124362
1955.22,0.136097
1957.46,0.129048
1959.69,0.109623
1961.92,0.112251
1964.15,0.0982039
1966.38,0.0928281
1968.62,0.0992396
1970.85,0.0862232
1973.08,0.105574
1975.31,0.113871
1977.54,0.103602
1979.78,0.115163
1982.01,0.115304
1984.24,0.126135
1986.47,0.13565
1988.7,0.104421
1990.94,0.121997
1993.17,0.119803
1995.4,0.0999611
1997.63,0.10544
1999.86,0.0888786
2002.1,0.103598
2004.33,0.114641
2006.56,0.103738
2008.79,0.12214
2011.02,0.130831
2013.26,0.128787
2015.49,0.157125
2017.72,0.142689
2019.95,0.128706
2022.18,0.134807
2024.42,0.107919
2026.65,0.111059
2028.88,0.10381
2031.11,0.0926879
2033.35,0.100075
2035.58,0.0951785
2037.81,0.105962
2040.04,0.123013
2042.27,0.115682
2044.51,0.130825
2046.74,0.12943
2048.97,0.121237
2051.2,0.119576
2053.43,0.10751
2055.67,0.107204
2057.9,0.116104
2060.13,0.0898578
2062.36,0.0965765
2064.59,0.0883911
2066.83,0.0907157
2069.06,0.10093
2071.29,0.0917777
2073.52,0.110301
2075.75,0.121904
2077.99,0.116095
2080.22,0.137981
2082.45,0.137463
2084.68,0.117492
2086.91,0.132542
2089.15,0.116656
2091.38,0.103962
2093.61,0.120812
2095.84,0.113573
2098.07,0.113443
2100.31,0.118181
2102.54,0.126431
2104.77,0.14484
2107,0.136755
2109.23,0.170433
2111.47,0.182371
2113.7,0.13038
2115.93,0.129869
2118.16,0.12335
2120.4,0.102681
2122.63,0.111378
2124.86,0.100204
2127.09,0.0954194
2129.32,0.105265
2131.56,0.10134
2133.79,0.113931
2136.02,0.12049
2138.25,0.113205
2140.48,0.129378
2142.72,0.105341
2144.95,0.0984368
2147.18,0.107466
2149.41,0.0930501
2151.64,0.100333
2153.88,0.0912804
2156.11,0.0875165
2158.34,0.108381
2160.57,0.101206
2162.8,0.0978256
2165.04,0.117056
2167.27,0.116676
2169.5,0.132239
2171.73,0.128484
2173.96,0.121109
2176.2,0.140448
2178.43,0.119171
2180.66,0.117573
2182.89,0.12091
2185.12,0.103584
2187.36,0.106956
2189.59,0.105184
2191.82,0.103879
2194.05,0.131681
2196.29,0.130741
2198.52,0.14136
2200.75,0.144741
2202.98,0.135283
2205.21,0.137167
2207.45,0.117361
2209.68,0.0987969
2211.91,0.105184
2214.14,0.104429
2216.37,0.104053
2218.61,0.108352
2220.84,0.0984392
2223.07,0.120412
2225.3,0.120128
2227.53,0.121374
2229.77,0.134257
2232,0.127091