File: Raman_data/Nylon 6.csv
200.235,0.447349
201.544,0.444246
202.852,0.437366
204.161,0.42933
205.469,0.423046
206.778,0.416413
208.086,0.410455
209.395,0.405389
210.703,0.39936
212.012,0.39486
213.32,0.387933
214.629,0.381434
215.937,0.379035
217.246,0.379492
218.554,0.382311
219.863,0.380924
221.171,0.373217
222.48,0.363344
223.788,0.350886
225.096,0.34192
226.405,0.338634
227.713,0.332233
229.022,0.324892
230.33,0.317101
231.639,0.309199
232.947,0.303026
234.256,0.294066
235.564,0.283417
236.873,0.274147
238.181,0.263941
239.49,0.257113
240.798,0.248124
242.107,0.237023
243.415,0.229087
244.724,0.222515
246.032,0.219003
247.341,0.216858
248.649,0.209153
249.958,0.201572
251.266,0.195253
252.575,0.187683
253.883,0.18117
255.192,0.177826
256.5,0.176163
257.809,0.175172
259.117,0.172603
260.425,0.166506
261.734,0.159767
263.042,0.154207
264.351,0.147262
265.659,0.144793
266.968,0.161102
268.276,0.178799
269.585,0.181326
270.893,0.166094
272.202,0.146357
273.51,0.136699
274.819,0.138688
276.127,0.13522
277.436,0.128586
278.744,0.12666
280.053,0.129963
281.361,0.130759
282.67,0.133234
283.978,0.137166
285.287,0.140778
286.595,0.145193
287.904,0.143092
289.212,0.138334
290.521,0.13844
291.829,0.139855
293.137,0.141526
294.446,0.137922
295.754,0.128881
297.063,0.119249
298.371,0.110444
299.68,0.106112
300.988,0.104614
302.297,0.102084
303.605,0.100883
304.914,0.0984659
306.222,0.0949193
307.531,0.0919205
308.839,0.0894868
310.148,0.0887037
311.456,0.0868475
312.765,0.0819009
314.073,0.0777271
315.382,0.0766505
316.69,0.075693
317.999,0.0728236
319.307,0.0691758
320.616,0.0663807
321.924,0.065018
323.233,0.0615658
324.541,0.0561297
325.85,0.0710951
327.158,0.0844685
328.466,0.0841243
329.775,0.0711238
331.083,0.0564921
332.392,0.0514341
333.7,0.0570231
335.009,0.0516257
336.317,0.0494271
337.626,0.0508089
338.934,0.0526568
340.243,0.0521959
341.551,0.0528587
342.86,0.050011
344.168,0.0441293
345.477,0.0378965
346.785,0.0342898
348.094,0.0357101
349.402,0.0395581
350.711,0.0408068
352.019,0.0411894
353.328,0.0404616
354.636,0.0402308
355.945,0.0413396
357.253,0.0434023
358.562,0.0443834
359.87,0.0468472
361.178,0.0490716
362.487,0.0508115
363.795,0.0513191
365.104,0.0501978
366.412,0.0505027
367.721,0.0534577
369.029,0.0537482
370.338,0.0505772
371.646,0.046303
372.955,0.0429789
374.263,0.0396612
375.572,0.0336019
376.88,0.0256891
378.189,0.0193966
379.497,0.0178345
380.806,0.0178613
382.114,0.0160517
383.423,0.0140805
384.731,0.0113601
386.04,0.00815138
387.348,0.00646291
388.657,0.00505914
389.965,0.00596196
391.274,0.00662524
392.582,0.00460151
393.891,0.00348032
395.199,0.00278909
396.507,0.00332563
397.816,0.00507911
399.124,0.00421301
400.433,0.00411656
401.741,0.00355055
403.05,0.00202513
404.358,0.0022535
405.667,0.00374172
406.975,0.00488102
408.284,0.00482606
409.592,0.00277782
410.901,0.00241992
412.209,0.0044058
413.518,0.00708706
414.826,0.00875812
416.135,0.00948659
417.443,0.00942112
418.752,0.0129563
420.06,0.0183185
421.369,0.0220857
422.677,0.0235077
423.986,0.0259555
425.294,0.0290845
426.603,0.0328525
427.911,0.0335011
429.219,0.0324618
430.528,0.0325847
431.836,0.0353759
433.145,0.0363681
434.453,0.0347592
435.762,0.0336623
437.07,0.0316157
438.379,0.029377
439.687,0.0276025
440.996,0.0266845
442.304,0.0266685
443.613,0.0286294
444.921,0.0277607
446.23,0.0251113
447.538,0.0220235
448.847,0.0185167
450.155,0.0171031
451.464,0.018948
452.772,0.0191419
454.081,0.016723
455.389,0.0129996
456.698,0.00939914
458.006,0.00849134
459.315,0.00927791
460.623,0.00830829
461.932,0.00721889
463.24,0.00654666
464.548,0.00690296
465.857,0.00615702
467.165,0.00742592
468.474,0.00867474
469.782,0.0104522
471.091,0.0112186
472.399,0.00922934
473.708,0.00612948
475.016,0.00716744
476.325,0.00958541
477.633,0.0122636
478.942,0.0121659
480.25,0.0113438
481.559,0.0129016
482.867,0.0159083
484.176,0.0165478
485.484,0.0152332
486.793,0.0136475
488.101,0.014768
489.41,0.0171341
490.718,0.0186265
492.027,0.0203951
493.335,0.0223572
494.644,0.0220739
495.952,0.0219298
497.26,0.0222717
498.569,0.0240654
499.877,0.0280763
501.186,0.0316387
502.494,0.033127
503.803,0.0321136
505.111,0.0307131
506.42,0.0317872
507.728,0.0338173
509.037,0.0338609
510.345,0.0350423
511.654,0.0367651
512.962,0.0381575
514.271,0.03834
515.579,0.0383146
516.888,0.0383983
518.196,0.0420718
519.505,0.0461431
520.813,0.0498523
522.122,0.0484493
523.43,0.0469809
524.739,0.0467666
526.047,0.0489358
527.356,0.0542762
528.664,0.0566161
529.973,0.0568921
531.281,0.0615149
532.589,0.0657838
533.898,0.070916
535.206,0.0743887
536.515,0.0737293
537.823,0.0727585
539.132,0.0702125
540.44,0.0664834
541.749,0.0606617
543.057,0.0540766
544.366,0.0496587
545.674,0.0441724
546.983,0.0374031
548.291,0.0311346
549.6,0.0259233
550.908,0.0243963
552.217,0.0249074
553.525,0.0218709
554.834,0.0187363
556.142,0.0158617
557.451,0.0138648
558.759,0.0141613
560.068,0.0175784
561.376,0.0198128
562.685,0.0214504
563.993,0.0226874
565.301,0.0291774
566.61,0.0396871
567.918,0.049628
569.227,0.0544685
570.535,0.0580667
571.844,0.0655328
573.152,0.0782459
574.461,0.0904226
575.769,0.0999345
577.078,0.106169
578.386,0.110977
579.695,0.116324
581.003,0.121319
582.312,0.123191
583.62,0.123691
584.929,0.122783
586.237,0.123051
587.546,0.123059
588.854,0.121277
590.163,0.118442
591.471,0.116207
592.78,0.116614
594.088,0.117668
595.397,0.115376
596.705,0.113105
598.014,0.114944
599.322,0.117296
600.63,0.116638
601.939,0.1125
603.247,0.109792
604.556,0.109971
605.864,0.107957
607.173,0.102974
608.481,0.100061
609.79,0.0994293
611.098,0.098374
612.407,0.0965265
613.715,0.0929673
615.024,0.0894032
616.332,0.0849195
617.641,0.0801823
618.949,0.0784298
620.258,0.0797927
621.566,0.0791218
622.875,0.0763776
624.183,0.0739922
625.492,0.0723316
626.8,0.0700253
628.109,0.0672501
629.417,0.0656857
630.726,0.0667333
632.034,0.0677139
633.342,0.0650747
634.651,0.0612193
635.959,0.0591321
637.268,0.0586088
638.576,0.0592559
639.885,0.0560868
641.193,0.0520727
642.502,0.046758
643.81,0.0403061
645.119,0.0360562
646.427,0.0327648
647.736,0.0319516
649.044,0.0353173
650.353,0.0352759
651.661,0.0319648
652.97,0.0267034
654.278,0.021515
655.587,0.0209318
656.895,0.0216897
658.204,0.0206713
659.512,0.0183013
660.821,0.0147895
662.129,0.0112329
663.438,0.00984043
664.746,0.0104438
666.055,0.011765
667.363,0.0133997
668.671,0.0123232
669.98,0.00940865
671.288,0.00656504
672.597,0.00499248
673.905,0.00581125
675.214,0.00551162
676.522,0.00531486
677.831,0.00644499
679.139,0.00783951
680.448,0.00997174
681.756,0.013399
683.065,0.013336
684.373,0.0156885
685.682,0.0182044
686.99,0.0202881
688.299,0.0234143
689.607,0.0268233
690.916,0.0277003
692.224,0.0269391
693.533,0.0215967
694.841,0.0166934
696.15,0.0173434
697.458,0.0199359
698.767,0.0212927
700.075,0.0207525
701.383,0.0207714
702.692,0.0252378
704,0.0284935
705.309,0.0294361
706.617,0.0295627
707.926,0.0287479
709.234,0.0302389
710.543,0.0357804
711.851,0.0374288
713.16,0.0380278
714.468,0.0364179
715.777,0.0337494
717.085,0.0330409
718.394,0.032318
719.702,0.0279652
721.011,0.0243234
722.319,0.0217465
723.628,0.0214971
724.936,0.02546
726.245,0.0263248
727.553,0.0236793
728.862,0.0218682
730.17,0.0225777
731.479,0.0237054
732.787,0.0277465
734.096,0.0289696
735.404,0.0290791
736.712,0.0285173
738.021,0.0281609
739.329,0.0284749
740.638,0.029213
741.946,0.0263794
743.255,0.0235669
744.563,0.0218013
745.872,0.0198949
747.18,0.0170384
748.489,0.0150723
749.797,0.0159281
751.106,0.0167161
752.414,0.0152311
753.723,0.014508
755.031,0.0131113
756.34,0.0137646
757.648,0.0164674
758.957,0.0188954
760.265,0.0194156
761.574,0.0206134
762.882,0.0227918
764.191,0.028334
765.499,0.035785
766.808,0.0427127
768.116,0.0479039
769.424,0.051916
770.733,0.0514809
772.041,0.0484638
773.35,0.0462214
774.658,0.0430765
775.967,0.0387819
777.275,0.0355919
778.584,0.0289932
779.892,0.0237487
781.201,0.020309
782.509,0.0171906
783.818,0.0138905
785.126,0.0101749
786.435,0.00551782
787.743,0.00543628
789.052,0.00640127
790.36,0.0115949
791.669,0.0259662
792.977,0.0469737
794.286,0.065266
795.594,0.0768752
796.903,0.0831679
798.211,0.0898825
799.52,0.0996435
800.828,0.104123
802.137,0.101712
803.445,0.0960729
804.753,0.0879724
806.062,0.0790475
807.37,0.0682489
808.679,0.0530807
809.987,0.0397645
811.296,0.0300278
812.604,0.0249519
813.913,0.0228747
815.221,0.019254
816.53,0.014791
817.838,0.0133245
819.147,0.0160777
820.455,0.0225994
821.764,0.0287402
823.072,0.0324517
824.381,0.0392995
825.689,0.0459456
826.998,0.0531083
828.306,0.0591186
829.615,0.0619023
830.923,0.0643105
832.232,0.06868
833.54,0.0732607
834.849,0.0804063
836.157,0.0869715
837.465,0.0923617
838.774,0.0961976
840.082,0.0979468
841.391,0.0974988
842.699,0.0980602
844.008,0.101118
845.316,0.103557
846.625,0.102899
847.933,0.0987783
849.242,0.0972113
850.55,0.0987968
851.859,0.102783
853.167,0.104269
854.476,0.101345
855.784,0.0978442
857.093,0.0970719
858.401,0.0972634
859.71,0.0991743
861.018,0.0984858
862.327,0.0963048
863.635,0.0944739
864.944,0.0944653
866.252,0.090711
867.561,0.0869617
868.869,0.0859632
870.178,0.0873241
871.486,0.0912363
872.794,0.0972194
874.103,0.101062
875.411,0.10509
876.72,0.108503
878.028,0.111571
879.337,0.115478
880.645,0.119848
881.954,0.120333
883.262,0.120595
884.571,0.118414
885.879,0.115003
887.188,0.11293
888.496,0.112184
889.805,0.117882
891.113,0.120487
892.422,0.119774
893.73,0.119542
895.039,0.117381
896.347,0.115934
897.656,0.115784
898.964,0.111008
900.273,0.11156
901.581,0.111927
902.89,0.111884
904.198,0.112886
905.506,0.116
906.815,0.11882
908.123,0.123379
909.432,0.1281
910.74,0.132704
912.049,0.141951
913.357,0.153054
914.666,0.162335
915.974,0.176543
917.283,0.189362
918.591,0.204708
919.9,0.223838
921.208,0.243247
922.517,0.266099
923.825,0.298167
925.134,0.33669
926.442,0.37745
927.751,0.410245
929.059,0.432496
930.368,0.446893
931.676,0.455968
932.985,0.452967
934.293,0.438525
935.602,0.416422
936.91,0.386467
938.219,0.35136
939.527,0.311018
940.835,0.268142
942.144,0.232183
943.452,0.202924
944.761,0.180416
946.069,0.166699
947.378,0.155806
948.686,0.147691
949.995,0.143792
951.303,0.143196
952.612,0.143703
953.92,0.144401
955.229,0.145144
956.537,0.150328
957.846,0.160005
959.154,0.170731
960.463,0.178495
961.771,0.184392
963.08,0.191044
964.388,0.19512
965.697,0.196321
967.005,0.194273
968.314,0.18795
969.622,0.178649
970.931,0.174182
972.239,0.169286
973.547,0.161855
974.856,0.151684
976.164,0.136788
977.473,0.122631
978.781,0.115422
980.09,0.110026
981.398,0.105101
982.707,0.0989793
984.015,0.0923696
985.324,0.0860171
986.632,0.079875
987.941,0.0736345
989.249,0.0677691
990.558,0.06409
991.866,0.0608658
993.175,0.0560398
994.483,0.0533765
995.792,0.0554558
997.1,0.0601615
998.409,0.0626998
999.717,0.0633991
1001.03,0.0621731
1002.33,0.0610416
1003.64,0.0610759
1004.95,0.0573915
1006.26,0.0490447
1007.57,0.0408885
1008.88,0.0358499
1010.18,0.0318484
1011.49,0.0250986
1012.8,0.0184251
1014.11,0.0155165
1015.42,0.0165996
1016.73,0.0183489
1018.04,0.0174152
1019.34,0.017576
1020.65,0.0194817
1021.96,0.0187321
1023.27,0.0192448
1024.58,0.0224894
1025.89,0.0275038
1027.2,0.0337646
1028.5,0.038341
1029.81,0.0437878
1031.12,0.0543155
1032.43,0.0644818
1033.74,0.0753315
1035.05,0.0872467
1036.35,0.0987059
1037.66,0.109797
1038.97,0.118533
1040.28,0.125312
1041.59,0.133665
1042.9,0.139405
1044.21,0.142907
1045.51,0.147301
1046.82,0.154671
1048.13,0.169188
1049.44,0.190525
1050.75,0.220749
1052.06,0.261066
1053.36,0.310122
1054.67,0.366892
1055.98,0.428362
1057.29,0.487911
1058.6,0.542557
1059.91,0.587482
1061.22,0.619767
1062.52,0.640001
1063.83,0.653096
1065.14,0.661997
1066.45,0.667882
1067.76,0.669956
1069.07,0.664113
1070.38,0.653176
1071.68,0.643467
1072.99,0.63715
1074.3,0.631479
1075.61,0.622288
1076.92,0.608773
1078.23,0.594131
1079.53,0.574179
1080.84,0.547985
1082.15,0.517954
1083.46,0.487067
1084.77,0.458657
1086.08,0.432976
1087.39,0.406587
1088.69,0.382999
1090,0.363839
1091.31,0.343064
1092.62,0.325436
1093.93,0.308393
1095.24,0.292759
1096.54,0.283438
1097.85,0.28201
1099.16,0.28354
1100.47,0.287048
1101.78,0.287609
1103.09,0.287882
1104.4,0.287278
1105.7,0.287149
1107.01,0.285616
1108.32,0.285679
1109.63,0.291241
1110.94,0.300899
1112.25,0.315166
1113.55,0.337218
1114.86,0.371456
1116.17,0.420769
1117.48,0.486623
1118.79,0.567288
1120.1,0.658703
1121.41,0.750648
1122.71,0.829738
1124.02,0.885351
1125.33,0.918448
1126.64,0.92745
1127.95,0.906068
1129.26,0.856325
1130.57,0.777382
1131.87,0.675248
1133.18,0.562573
1134.49,0.448753
1135.8,0.343795
1137.11,0.253898
1138.42,0.177626
1139.72,0.115165
1141.03,0.0696908
1142.34,0.0397712
1143.65,0.0215253
1144.96,0.0105476
1146.27,0.0072436
1147.58,0.00675722
1148.88,0.00999487
1150.19,0.013015
1151.5,0.018313
1152.81,0.0265488
1154.12,0.0368265
1155.43,0.0471422
1156.73,0.0573256
1158.04,0.0673237
1159.35,0.0810841
1160.66,0.0978808
1161.97,0.109291
1163.28,0.120639
1164.59,0.127212
1165.89,0.134586
1167.2,0.143854
1168.51,0.149676
1169.82,0.14919
1171.13,0.145491
1172.44,0.137288
1173.75,0.129236
1175.05,0.125501
1176.36,0.116433
1177.67,0.101957
1178.98,0.0863133
1180.29,0.0761414
1181.6,0.0701327
1182.9,0.0685875
1184.21,0.0613291
1185.52,0.0571243
1186.83,0.0534346
1188.14,0.0538265
1189.45,0.0579822
1190.76,0.0665668
1192.06,0.0779573
1193.37,0.0897612
1194.68,0.102317
1195.99,0.117457
1197.3,0.135247
1198.61,0.151433
1199.91,0.163208
1201.22,0.170753
1202.53,0.173796
1203.84,0.170564
1205.15,0.165261
1206.46,0.156856
1207.77,0.148063
1209.07,0.141347
1210.38,0.135559
1211.69,0.126903
1213,0.116271
1214.31,0.105976
1215.62,0.0987359
1216.92,0.0957965
1218.23,0.0912678
1219.54,0.0853216
1220.85,0.0829509
1222.16,0.0835212
1223.47,0.0858401
1224.78,0.0885103
1226.08,0.0918005
1227.39,0.101697
1228.7,0.11435
1230.01,0.128745
1231.32,0.143207
1232.63,0.154655
1233.94,0.165644
1235.24,0.174882
1236.55,0.179077
1237.86,0.185749
1239.17,0.190186
1240.48,0.192032
1241.79,0.193296
1243.09,0.191121
1244.4,0.187574
1245.71,0.186165
1247.02,0.185918
1248.33,0.187898
1249.64,0.190298
1250.95,0.191578
1252.25,0.19545
1253.56,0.204718
1254.87,0.214649
1256.18,0.22057
1257.49,0.2261
1258.8,0.235148
1260.1,0.246785
1261.41,0.259456
1262.72,0.271843
1264.03,0.286257
1265.34,0.301619
1266.65,0.315293
1267.96,0.33223
1269.26,0.356058
1270.57,0.391713
1271.88,0.435128
1273.19,0.479384
1274.5,0.521236
1275.81,0.557941
1277.12,0.587449
1278.42,0.614622
1279.73,0.62968
1281.04,0.630135
1282.35,0.61736
1283.66,0.595892
1284.97,0.572244
1286.27,0.546326
1287.58,0.518096
1288.89,0.493186
1290.2,0.472809
1291.51,0.459078
1292.82,0.457061
1294.13,0.466048
1295.43,0.48362
1296.74,0.501435
1298.05,0.525762
1299.36,0.555683
1300.67,0.590504
1301.98,0.624938
1303.28,0.654799
1304.59,0.676281
1305.9,0.683441
1307.21,0.670433
1308.52,0.647003
1309.83,0.619834
1311.14,0.586018
1312.44,0.544307
1313.75,0.489997
1315.06,0.43867
1316.37,0.392139
1317.68,0.349023
1318.99,0.307648
1320.29,0.27047
1321.6,0.23874
1322.91,0.220773
1324.22,0.204588
1325.53,0.18602
1326.84,0.168856
1328.15,0.15287
1329.45,0.142059
1330.76,0.137018
1332.07,0.128631
1333.38,0.118996
1334.69,0.115517
1336,0.112308
1337.31,0.110556
1338.61,0.110973
1339.92,0.112154
1341.23,0.117763
1342.54,0.124403
1343.85,0.127135
1345.16,0.131835
1346.46,0.138868
1347.77,0.143672
1349.08,0.147058
1350.39,0.14858
1351.7,0.149046
1353.01,0.147865
1354.32,0.14187
1355.62,0.136673
1356.93,0.138897
1358.24,0.146755
1359.55,0.153562
1360.86,0.15577
1362.17,0.156179
1363.47,0.160631
1364.78,0.167619
1366.09,0.176991
1367.4,0.184145
1368.71,0.190406
1370.02,0.193703
1371.33,0.194831
1372.63,0.19476
1373.94,0.195035
1375.25,0.195004
1376.56,0.198149
1377.87,0.200762
1379.18,0.202539
1380.49,0.200548
1381.79,0.194903
1383.1,0.190063
1384.41,0.185828
1385.72,0.181541
1387.03,0.174333
1388.34,0.162977
1389.64,0.15007
1390.95,0.136722
1392.26,0.123293
1393.57,0.111387
1394.88,0.100835
1396.19,0.092878
1397.5,0.0859891
1398.8,0.0795448
1400.11,0.0736982
1401.42,0.0744528
1402.73,0.0752718
1404.04,0.0773869
1405.35,0.0841992
1406.65,0.0940562
1407.96,0.106347
1409.27,0.121173
1410.58,0.13431
1411.89,0.153035
1413.2,0.172557
1414.51,0.189654
1415.81,0.207439
1417.12,0.221609
1418.43,0.234649
1419.74,0.247926
1421.05,0.259165
1422.36,0.269832
1423.66,0.280017
1424.97,0.293032
1426.28,0.31772
1427.59,0.351871
1428.9,0.389636
1430.21,0.430346
1431.52,0.474986
1432.82,0.53113
1434.13,0.601305
1435.44,0.677821
1436.75,0.759017
1438.06,0.836567
1439.37,0.901497
1440.68,0.949811
1441.98,0.986917
1443.29,0.998124
1444.6,0.98999
1445.91,0.959345
1447.22,0.908141
1448.53,0.840287
1449.83,0.765426
1451.14,0.683762
1452.45,0.612548
1453.76,0.544835
1455.07,0.480897
1456.38,0.429065
1457.69,0.395757
1458.99,0.376551
1460.3,0.364604
1461.61,0.36027
1462.92,0.36065
1464.23,0.365195
1465.54,0.366489
1466.84,0.363312
1468.15,0.359585
1469.46,0.353235
1470.77,0.343415
1472.08,0.335568
1473.39,0.325511
1474.7,0.318316
1476,0.311695
1477.31,0.299784
1478.62,0.285918
1479.93,0.267886
1481.24,0.246729
1482.55,0.226134
1483.86,0.201315
1485.16,0.171267
1486.47,0.143413
1487.78,0.119331
1489.09,0.0989251
1490.4,0.0815522
1491.71,0.0671428
1493.01,0.0559785
1494.32,0.047353
1495.63,0.0411528
1496.94,0.0338479
1498.25,0.0257149
1499.56,0.0196632
1500.87,0.0164103
1502.17,0.0154476
1503.48,0.0166099
1504.79,0.0141545
1506.1,0.0112479
1507.41,0.0105634
1508.72,0.0104063
1510.02,0.0118334
1511.33,0.0142663
1512.64,0.0140378
1513.95,0.0118571
1515.26,0.0146436
1516.57,0.0157008
1517.88,0.0167467
1519.18,0.0162676
1520.49,0.0152282
1521.8,0.0173331
1523.11,0.0198729
1524.42,0.0186783
1525.73,0.0204046
1527.03,0.0215321
1528.34,0.0240579
1529.65,0.0256873
1530.96,0.0263516
1532.27,0.0277351
1533.58,0.0290054
1534.89,0.0293545
1536.19,0.0286533
1537.5,0.0279284
1538.81,0.0289074
1540.12,0.0292229
1541.43,0.0304603
1542.74,0.0302338
1544.05,0.0292332
1545.35,0.0299604
1546.66,0.028788
1547.97,0.027777
1549.28,0.0275589
1550.59,0.02877
1551.9,0.0283533
1553.2,0.027449
1554.51,0.0269944
1555.82,0.0263949
1557.13,0.0243185
1558.44,0.0209253
1559.75,0.0172131
1561.06,0.0173929
1562.36,0.0169607
1563.67,0.01688
1564.98,0.017854
1566.29,0.018755
1567.6,0.0196219
1568.91,0.017997
1570.21,0.0159454
1571.52,0.017567
1572.83,0.0181261
1574.14,0.0165695
1575.45,0.0136502
1576.76,0.0118412
1578.07,0.0131409
1579.37,0.0153264
1580.68,0.0154186
1581.99,0.0140223
1583.3,0.0135755
1584.61,0.0164567
1585.92,0.0181803
1587.22,0.0168422
1588.53,0.0149234
1589.84,0.0142337
1591.15,0.0159358
1592.46,0.016877
1593.77,0.0192657
1595.08,0.021401
1596.38,0.0225482
1597.69,0.0238744
1599,0.0253515
1600.31,0.0286188
1601.62,0.0346452
1602.93,0.0370085
1604.24,0.0392676
1605.54,0.0413974
1606.85,0.0431894
1608.16,0.0464765
1609.47,0.0499431
1610.78,0.052387
1612.09,0.0542397
1613.39,0.0569193
1614.7,0.0627104
1616.01,0.0694239
1617.32,0.0775587
1618.63,0.0872716
1619.94,0.0963755
1621.25,0.108096
1622.55,0.123399
1623.86,0.144413
1625.17,0.174854
1626.48,0.212973
1627.79,0.257307
1629.1,0.305124
1630.4,0.350352
1631.71,0.388462
1633.02,0.419065
1634.33,0.436879
1635.64,0.441283
1636.95,0.431236
1638.26,0.411483
1639.56,0.384955
1640.87,0.353992
1642.18,0.316943
1643.49,0.279784
1644.8,0.247749
1646.11,0.224226
1647.42,0.202783
1648.72,0.182839
1650.03,0.167835
1651.34,0.160132
1652.65,0.153154
1653.96,0.14362
1655.27,0.133156
1656.57,0.127513
1657.88,0.123191
1659.19,0.119066
1660.5,0.112733
1661.81,0.107758
1663.12,0.101905
1664.43,0.0951684
1665.73,0.0890476
1667.04,0.0819425
1668.35,0.0730498
1669.66,0.0652237
1670.97,0.0587459
1672.28,0.0534993
1673.58,0.0490106
1674.89,0.0450579
1676.2,0.0444076
1677.51,0.0427791
1678.82,0.0384608
1680.13,0.0334456
1681.44,0.0299276
1682.74,0.0292435
1684.05,0.0289356
1685.36,0.0270004
1686.67,0.0254155
1687.98,0.0242698
1689.29,0.0233031
1690.59,0.0233659
1691.9,0.0223801
1693.21,0.0215214
1694.52,0.0209858
1695.83,0.0188783
1697.14,0.0174741
1698.45,0.018536
1699.75,0.0188714
1701.06,0.0191775
1702.37,0.0177882
1703.68,0.0153657
1704.99,0.0158334
1706.3,0.0166901
1707.61,0.0162148
1708.91,0.0177612
1710.22,0.0175195
1711.53,0.0175388
1712.84,0.0187459
1714.15,0.0206903
1715.46,0.0219962
1716.76,0.0200452
1718.07,0.0184836
1719.38,0.017343
1720.69,0.0182008
1722,0.0195947
1723.31,0.0198755
1724.62,0.0200621
1725.92,0.0229703
1727.23,0.0210131
1728.54,0.0203109
1729.85,0.0188539
1731.16,0.0185911
1732.47,0.0193558
1733.77,0.0222679
1735.08,0.0241468
1736.39,0.025443
1737.7,0.0233795
1739.01,0.0213919
1740.32,0.022476
1741.63,0.0246874
1742.93,0.0261156
1744.24,0.025329
1745.55,0.0241004
1746.86,0.0237382