File: Raman_data/PETG.csv
200.376,0.054766
201.578,0.0514821
202.78,0.0503421
203.982,0.0589217
205.184,0.0769118
206.385,0.0845829
207.587,0.0837434
208.789,0.075667
209.991,0.0655519
211.193,0.0656659
212.394,0.0747294
213.596,0.086367
214.798,0.100192
216,0.0920815
217.202,0.0782347
218.404,0.0793283
219.605,0.0975483
220.807,0.108582
222.009,0.101719
223.211,0.0849777
224.413,0.0728227
225.614,0.0656087
226.816,0.0627434
228.018,0.0566294
229.22,0.0646222
230.422,0.0737337
231.624,0.0710718
232.825,0.0553331
234.027,0.0469862
235.229,0.0590869
236.431,0.0875267
237.633,0.108983
238.834,0.108719
240.036,0.0954884
241.238,0.091242
242.44,0.093431
243.642,0.101711
244.844,0.109421
246.045,0.112982
247.247,0.127224
248.449,0.139616
249.651,0.148065
250.853,0.164376
252.054,0.166983
253.256,0.16484
254.458,0.166
255.66,0.1601
256.862,0.167847
258.064,0.187138
259.265,0.204209
260.467,0.231053
261.669,0.24408
262.871,0.24864
264.073,0.261892
265.274,0.269995
266.476,0.269011
267.678,0.256622
268.88,0.236181
270.082,0.243433
271.283,0.252133
272.485,0.245003
273.687,0.228334
274.889,0.214068
276.091,0.212357
277.293,0.221259
278.494,0.213087
279.696,0.193877
280.898,0.172729
282.1,0.156387
283.302,0.136818
284.503,0.136338
285.705,0.146331
286.907,0.152054
288.109,0.151749
289.311,0.133122
290.513,0.110494
291.714,0.106116
292.916,0.105536
294.118,0.112222
295.32,0.111999
296.522,0.0972808
297.723,0.0918103
298.925,0.0909586
300.127,0.0953045
301.329,0.101838
302.531,0.103328
303.733,0.112516
304.934,0.118504
306.136,0.101891
307.338,0.0853784
308.54,0.0760089
309.742,0.0781774
310.943,0.0897372
312.145,0.0911253
313.347,0.0814726
314.549,0.0721504
315.751,0.0698154
316.953,0.0737973
318.154,0.0673435
319.356,0.0500082
320.558,0.039575
321.76,0.052958
322.962,0.0628125
324.163,0.0524235
325.365,0.0357069
326.567,0.0328619
327.769,0.0431344
328.971,0.0521341
330.173,0.0466557
331.374,0.0329131
332.576,0.0230784
333.778,0.0197701
334.98,0.019218
336.182,0.0357324
337.383,0.0483674
338.585,0.0451823
339.787,0.0417438
340.989,0.0406476
342.191,0.0475895
343.393,0.0651581
344.594,0.0701785
345.796,0.0720282
346.998,0.0730094
348.2,0.0742651
349.402,0.0790649
350.603,0.0889797
351.805,0.093602
353.007,0.0880787
354.209,0.0736181
355.411,0.0787404
356.613,0.0898741
357.814,0.0925024
359.016,0.085131
360.218,0.0770747
361.42,0.0780406
362.622,0.0842545
363.823,0.0635694
365.025,0.0566183
366.227,0.0633852
367.429,0.0720727
368.631,0.0743175
369.833,0.059085
371.034,0.038659
372.236,0.0381189
373.438,0.0471046
374.64,0.0547763
375.842,0.0586
377.043,0.0551927
378.245,0.0489632
379.447,0.0467693
380.649,0.0355853
381.851,0.0334063
383.053,0.0831931
384.254,0.118502
385.456,0.109289
386.658,0.0626709
387.86,0.0135419
389.062,0.00734891
390.263,0.0373559
391.465,0.0441886
392.667,0.0364203
393.869,0.0284221
395.071,0.0150701
396.273,0.0178783
397.474,0.0501206
398.676,0.060171
399.878,0.066357
401.08,0.07398
402.282,0.0709387
403.483,0.0908597
404.685,0.0993116
405.887,0.0886721
407.089,0.0922817
408.291,0.0995188
409.493,0.105585
410.694,0.101183
411.896,0.0771531
413.098,0.071089
414.3,0.0776855
415.502,0.0886423
416.703,0.0861222
417.905,0.0713428
419.107,0.0614208
420.309,0.0643381
421.511,0.0660788
422.713,0.0645214
423.914,0.0564661
425.116,0.0480155
426.318,0.0488274
427.52,0.0548204
428.722,0.0467515
429.923,0.0408392
431.125,0.0413132
432.327,0.0431695
433.529,0.0562414
434.731,0.0615692
435.933,0.0486436
437.134,0.0351609
438.336,0.0301365
439.538,0.0480262
440.74,0.0725958
441.942,0.0727364
443.143,0.0578635
444.345,0.0402816
445.547,0.0421794
446.749,0.0554092
447.951,0.0621052
449.153,0.060117
450.354,0.0527151
451.556,0.048195
452.758,0.0582248
453.96,0.0765051
455.162,0.0879457
456.363,0.0881873
457.565,0.0814526
458.767,0.0783296
459.969,0.0745172
461.171,0.0761535
462.373,0.0800076
463.574,0.0842416
464.776,0.0941576
465.978,0.0973723
467.18,0.0882929
468.382,0.0857389
469.583,0.0835935
470.785,0.0774983
471.987,0.0756375
473.189,0.0774739
474.391,0.0751824
475.593,0.0751241
476.794,0.0730799
477.996,0.0709665
479.198,0.0713658
480.4,0.0684892
481.602,0.0585729
482.803,0.056367
484.005,0.0486523
485.207,0.0480479
486.409,0.0497645
487.611,0.0546788
488.813,0.0663533
490.014,0.0682698
491.216,0.0549959
492.418,0.0434243
493.62,0.0370437
494.822,0.0452412
496.023,0.0610268
497.225,0.065292
498.427,0.0614422
499.629,0.0542364
500.831,0.0562848
502.033,0.0614237
503.234,0.0651154
504.436,0.0596738
505.638,0.0560236
506.84,0.0448123
508.042,0.042268
509.243,0.0457484
510.445,0.0678368
511.647,0.078032
512.849,0.0763867
514.051,0.0627112
515.253,0.0596639
516.454,0.0619172
517.656,0.0647847
518.858,0.0572031
520.06,0.0595953
521.262,0.0559042
522.463,0.0548637
523.665,0.0562677
524.867,0.0592544
526.069,0.0650504
527.271,0.0617459
528.473,0.0628312
529.674,0.0727135
530.876,0.0734277
532.078,0.0647404
533.28,0.0612784
534.482,0.0602238
535.683,0.0693465
536.885,0.0888947
538.087,0.0861108
539.289,0.0741196
540.491,0.0701683
541.693,0.0677127
542.894,0.0647501
544.096,0.0683586
545.298,0.0616367
546.5,0.067334
547.702,0.0731432
548.903,0.0653382
550.105,0.0524773
551.307,0.0515778
552.509,0.0595328
553.711,0.0632769
554.912,0.0565737
556.114,0.0433259
557.316,0.0403277
558.518,0.0449151
559.72,0.0435303
560.922,0.0449163
562.123,0.0546452
563.325,0.0542163
564.527,0.0531954
565.729,0.0532684
566.931,0.0622746
568.132,0.0851138
569.334,0.0952817
570.536,0.0870051
571.738,0.0726505
572.94,0.0496431
574.142,0.0350753
575.343,0.040685
576.545,0.0466977
577.747,0.0484086
578.949,0.0500241
580.151,0.0570831
581.352,0.0663272
582.554,0.0755648
583.756,0.0796081
584.958,0.0882201
586.16,0.084062
587.362,0.0708416
588.563,0.0561221
589.765,0.0529979
590.967,0.0704672
592.169,0.0882046
593.371,0.089644
594.572,0.07817
595.774,0.0577135
596.976,0.0432726
598.178,0.053867
599.38,0.0668394
600.582,0.0750394
601.783,0.0763204
602.985,0.0683094
604.187,0.0709219
605.389,0.075905
606.591,0.0634574
607.792,0.0535184
608.994,0.0495911
610.196,0.0522208
611.398,0.0588436
612.6,0.050585
613.802,0.0508251
615.003,0.0612788
616.205,0.0664318
617.407,0.0689864
618.609,0.0764707
619.811,0.08621
621.012,0.08714
622.214,0.074833
623.416,0.0718295
624.618,0.097742
625.82,0.138937
627.022,0.185211
628.223,0.253955
629.425,0.351795
630.627,0.456703
631.829,0.527378
633.031,0.542837
634.232,0.510679
635.434,0.437472
636.636,0.34017
637.838,0.240768
639.04,0.162134
640.242,0.119105
641.443,0.104348
642.645,0.103251
643.847,0.10112
645.049,0.0913978
646.251,0.0847257
647.452,0.0864611
648.654,0.0919929
649.856,0.0837249
651.058,0.0708859
652.26,0.0704068
653.462,0.0823546
654.663,0.0924299
655.865,0.0924009
657.067,0.0808428
658.269,0.0708867
659.471,0.060903
660.672,0.0586907
661.874,0.0629812
663.076,0.0739694
664.278,0.0853831
665.48,0.079142
666.682,0.0713117
667.883,0.0690243
669.085,0.0686372
670.287,0.0779212
671.489,0.0761858
672.691,0.0690966
673.892,0.0695202
675.094,0.0654916
676.296,0.0639373
677.498,0.0639557
678.7,0.0597279
679.902,0.065067
681.103,0.0687013
682.305,0.0775999
683.507,0.0725543
684.709,0.0595313
685.911,0.0470578
687.112,0.0443384
688.314,0.0570477
689.516,0.0649531
690.718,0.0627821
691.92,0.065345
693.122,0.0658702
694.323,0.0645742
695.525,0.0696569
696.727,0.0799119
697.929,0.108607
699.131,0.141817
700.332,0.168015
701.534,0.1857
702.736,0.203699
703.938,0.217368
705.14,0.223641
706.342,0.218701
707.543,0.200193
708.745,0.186826
709.947,0.176985
711.149,0.160686
712.351,0.147029
713.552,0.132422
714.754,0.111076
715.956,0.0923753
717.158,0.0743716
718.36,0.0622439
719.562,0.0700192
720.763,0.0726531
721.965,0.0735269
723.167,0.0803155
724.369,0.0815706
725.571,0.0631729
726.772,0.0563537
727.974,0.0527669
729.176,0.0559572
730.378,0.0606983
731.58,0.06293
732.782,0.0717307
733.983,0.0863386
735.185,0.0777799
736.387,0.0621601
737.589,0.0611702
738.791,0.072366
739.992,0.0807953
741.194,0.077185
742.396,0.0747453
743.598,0.0746756
744.8,0.0729747
746.002,0.0658692
747.203,0.0585026
748.405,0.0599825
749.607,0.057092
750.809,0.0511497
752.011,0.0568615
753.212,0.0683693
754.414,0.0676378
755.616,0.0573132
756.818,0.0523182
758.02,0.0649604
759.222,0.0793678
760.423,0.0813668
761.625,0.0834653
762.827,0.0892217
764.029,0.104414
765.231,0.117359
766.432,0.126182
767.634,0.130509
768.836,0.141053
770.038,0.148403
771.24,0.166344
772.442,0.182805
773.643,0.190529
774.845,0.183815
776.047,0.169155
777.249,0.146804
778.451,0.136351
779.652,0.145663
780.854,0.159544
782.056,0.160077
783.258,0.150086
784.46,0.138085
785.662,0.13669
786.863,0.150976
788.065,0.161101
789.267,0.174471
790.469,0.195757
791.671,0.217987
792.872,0.241207
794.074,0.245383
795.276,0.229329
796.478,0.206497
797.68,0.182588
798.882,0.17702
800.083,0.183588
801.285,0.191773
802.487,0.192781
803.689,0.181288
804.891,0.175826
806.092,0.184822
807.294,0.176198
808.496,0.167823
809.698,0.162843
810.9,0.173814
812.102,0.189777
813.303,0.193181
814.505,0.175682
815.707,0.168034
816.909,0.167354
818.111,0.175778
819.312,0.17598
820.514,0.183004
821.716,0.184771
822.918,0.181844
824.12,0.177926
825.321,0.16474
826.523,0.154409
827.725,0.167625
828.927,0.176603
830.129,0.180359
831.331,0.179245
832.532,0.177571
833.734,0.19371
834.936,0.205612
836.138,0.20365
837.34,0.201078
838.541,0.206676
839.743,0.219777
840.945,0.238582
842.147,0.250113
843.349,0.261421
844.551,0.273904
845.752,0.284859
846.954,0.297647
848.156,0.314669
849.358,0.334784
850.56,0.358106
851.761,0.380988
852.963,0.393281
854.165,0.402672
855.367,0.405319
856.569,0.402015
857.771,0.39664
858.972,0.390587
860.174,0.390376
861.376,0.394547
862.578,0.39114
863.78,0.38082
864.981,0.36304
866.183,0.348495
867.385,0.339279
868.587,0.330828
869.789,0.321014
870.991,0.30547
872.192,0.292254
873.394,0.274991
874.596,0.249913
875.798,0.231248
877,0.227145
878.201,0.235853
879.403,0.237183
880.605,0.219806
881.807,0.199964
883.009,0.192195
884.211,0.195031
885.412,0.192555
886.614,0.184444
887.816,0.173513
889.018,0.169423
890.22,0.165826
891.421,0.151077
892.623,0.128213
893.825,0.119113
895.027,0.117241
896.229,0.124854
897.431,0.128045
898.632,0.122317
899.834,0.106185
901.036,0.0969664
902.238,0.085588
903.44,0.0764177
904.641,0.0726652
905.843,0.07682
907.045,0.0833379
908.247,0.0942969
909.449,0.0878007
910.651,0.0719455
911.852,0.0590358
913.054,0.0530614
914.256,0.061846
915.458,0.0674159
916.66,0.0714603
917.861,0.0752638
919.063,0.076777
920.265,0.0781271
921.467,0.0736797
922.669,0.0632563
923.871,0.0687986
925.072,0.0724453
926.274,0.0725036
927.476,0.0684591
928.678,0.0641667
929.88,0.0661971
931.081,0.0720229
932.283,0.0742241
933.485,0.0695229
934.687,0.0609733
935.889,0.059807
937.091,0.0633309
938.292,0.0667336
939.494,0.0636493
940.696,0.0559894
941.898,0.0475132
943.1,0.0471938
944.301,0.0431118
945.503,0.0370801
946.705,0.032514
947.907,0.0296758
949.109,0.0298927
950.311,0.0314289
951.512,0.033985
952.714,0.0276694
953.916,0.0228743
955.118,0.0234668
956.32,0.0285266
957.521,0.0449505
958.723,0.0500952
959.925,0.032872
961.127,0.0188917
962.329,0.0104541
963.531,0.0116034
964.732,0.021934
965.934,0.0319879
967.136,0.0437196
968.338,0.0428795
969.54,0.0377173
970.741,0.0415605
971.943,0.0509953
973.145,0.0529657
974.347,0.0452841
975.549,0.0350295
976.751,0.0381283
977.952,0.0463103
979.154,0.0464918
980.356,0.0470539
981.558,0.0502838
982.76,0.0437741
983.961,0.0323347
985.163,0.0253185
986.365,0.03053
987.567,0.0380377
988.769,0.0350355
989.971,0.0314673
991.172,0.0308363
992.374,0.0367151
993.576,0.0434853
994.778,0.045791
995.98,0.0487975
997.181,0.055088
998.383,0.0642657
999.585,0.0750292
1000.79,0.0808325
1001.99,0.0806504
1003.19,0.0721674
1004.39,0.0685075
1005.59,0.0711551
1006.8,0.0737918
1008,0.0746953
1009.2,0.0696485
1010.4,0.0624431
1011.6,0.0594439
1012.81,0.0656213
1014.01,0.0782469
1015.21,0.0873884
1016.41,0.0874776
1017.61,0.077748
1018.81,0.0666807
1020.02,0.066565
1021.22,0.0694178
1022.42,0.0704893
1023.62,0.068692
1024.82,0.0689509
1026.03,0.0696589
1027.23,0.079449
1028.43,0.0784391
1029.63,0.0768501
1030.83,0.0712246
1032.03,0.0607501
1033.24,0.0541358
1034.44,0.0567226
1035.64,0.0611918
1036.84,0.0645691
1038.04,0.0608581
1039.25,0.0556178
1040.45,0.0525182
1041.65,0.0590988
1042.85,0.066267
1044.05,0.0542636
1045.25,0.0535165
1046.46,0.0551772
1047.66,0.0584746
1048.86,0.0591223
1050.06,0.0520473
1051.26,0.0403358
1052.47,0.0417448
1053.67,0.0434573
1054.87,0.0442623
1056.07,0.0512857
1057.27,0.0639881
1058.47,0.0632969
1059.68,0.0539787
1060.88,0.0402529
1062.08,0.0349015
1063.28,0.0453978
1064.48,0.0574953
1065.69,0.0583354
1066.89,0.0612896
1068.09,0.0696105
1069.29,0.081092
1070.49,0.0788174
1071.69,0.0690625
1072.9,0.0646691
1074.1,0.0709869
1075.3,0.0802337
1076.5,0.0925243
1077.7,0.0905367
1078.91,0.087374
1080.11,0.0796844
1081.31,0.0722606
1082.51,0.0734467
1083.71,0.0746535
1084.91,0.0729772
1086.12,0.0788147
1087.32,0.0878626
1088.52,0.104898
1089.72,0.120331
1090.92,0.123363
1092.13,0.12138
1093.33,0.113301
1094.53,0.115736
1095.73,0.130219
1096.93,0.145473
1098.13,0.149724
1099.34,0.142055
1100.54,0.137694
1101.74,0.143196
1102.94,0.151067
1104.14,0.165753
1105.35,0.175962
1106.55,0.181495
1107.75,0.184004
1108.95,0.178371
1110.15,0.175228
1111.35,0.171616
1112.56,0.170318
1113.76,0.177689
1114.96,0.185197
1116.16,0.186056
1117.36,0.181546
1118.57,0.174478
1119.77,0.175458
1120.97,0.163513
1122.17,0.140191
1123.37,0.115444
1124.57,0.101643
1125.78,0.101953
1126.98,0.0978379
1128.18,0.0850864
1129.38,0.0804576
1130.58,0.07897
1131.79,0.0775053
1132.99,0.0657054
1134.19,0.0447594
1135.39,0.038846
1136.59,0.048284
1137.79,0.0521562
1139,0.0577084
1140.2,0.055046
1141.4,0.0484223
1142.6,0.0466779
1143.8,0.0483147
1145.01,0.0452401
1146.21,0.0461656
1147.41,0.0465436
1148.61,0.0475063
1149.81,0.0475921
1151.01,0.0477636
1152.22,0.0484411
1153.42,0.0542867
1154.62,0.0660815
1155.82,0.0715593
1157.02,0.0681858
1158.23,0.0619283
1159.43,0.0597294
1160.63,0.0677022
1161.83,0.0860153
1163.03,0.0997514
1164.23,0.0917661
1165.44,0.0935424
1166.64,0.0961228
1167.84,0.101786
1169.04,0.113015
1170.24,0.124315
1171.45,0.132667
1172.65,0.153269
1173.85,0.155805
1175.05,0.151906
1176.25,0.138189
1177.45,0.131728
1178.66,0.135697
1179.86,0.14023
1181.06,0.132715
1182.26,0.11495
1183.46,0.0876352
1184.67,0.0758532
1185.87,0.0706951
1187.07,0.0645487
1188.27,0.0568925
1189.47,0.0509813
1190.67,0.0549858
1191.88,0.0725285
1193.08,0.0781524
1194.28,0.0739391
1195.48,0.0734629
1196.68,0.0710121
1197.89,0.0609966
1199.09,0.0495465
1200.29,0.044703
1201.49,0.0427358
1202.69,0.0389613
1203.89,0.0324223
1205.1,0.0427752
1206.3,0.0550745
1207.5,0.0593375
1208.7,0.0529353
1209.9,0.0497969
1211.11,0.0564133
1212.31,0.0630168
1213.51,0.0669346
1214.71,0.0712035
1215.91,0.0710824
1217.11,0.0768146
1218.32,0.0832771
1219.52,0.0851755
1220.72,0.0934068
1221.92,0.091813
1223.12,0.0861998
1224.33,0.0837487
1225.53,0.0868981
1226.73,0.0951692
1227.93,0.105314
1229.13,0.105288
1230.33,0.0986086
1231.54,0.0948961
1232.74,0.0972554
1233.94,0.0953896
1235.14,0.104156
1236.34,0.115829
1237.54,0.124799
1238.75,0.132479
1239.95,0.139201
1241.15,0.144547
1242.35,0.153471
1243.55,0.158023
1244.76,0.163418
1245.96,0.167834
1247.16,0.180527
1248.36,0.196276
1249.56,0.206596
1250.76,0.210167
1251.97,0.210879
1253.17,0.208383
1254.37,0.21315
1255.57,0.214474
1256.77,0.229779
1257.98,0.251113
1259.18,0.266593
1260.38,0.266389
1261.58,0.262426
1262.78,0.270947
1263.98,0.286382
1265.19,0.291006
1266.39,0.296374
1267.59,0.30098
1268.79,0.307674
1269.99,0.330931
1271.2,0.35431
1272.4,0.374761
1273.6,0.39637
1274.8,0.40677
1276,0.416315
1277.2,0.425975
1278.41,0.437395
1279.61,0.443725
1280.81,0.448876
1282.01,0.442251
1283.21,0.433645
1284.42,0.432905
1285.62,0.437135
1286.82,0.425712
1288.02,0.415766
1289.22,0.396916
1290.42,0.383916
1291.63,0.365247
1292.83,0.338493
1294.03,0.317512
1295.23,0.300423
1296.43,0.290768
1297.64,0.279261
1298.84,0.25072
1300.04,0.236854
1301.24,0.244121
1302.44,0.260291
1303.64,0.268186
1304.85,0.254766
1306.05,0.243732
1307.25,0.24072
1308.45,0.241363
1309.65,0.240587
1310.86,0.232282
1312.06,0.220551
1313.26,0.217665
1314.46,0.213475
1315.66,0.212355
1316.86,0.207932
1318.07,0.19461
1319.27,0.185386
1320.47,0.185826
1321.67,0.180945
1322.87,0.177386
1324.08,0.176633
1325.28,0.171811
1326.48,0.16641
1327.68,0.161937
1328.88,0.157177
1330.08,0.154063
1331.29,0.152017
1332.49,0.154057
1333.69,0.145402
1334.89,0.129606
1336.09,0.128074
1337.3,0.136875
1338.5,0.146962
1339.7,0.146537
1340.9,0.131273
1342.1,0.131139
1343.3,0.134832
1344.51,0.133603
1345.71,0.131052
1346.91,0.136822
1348.11,0.149505
1349.31,0.149818
1350.52,0.143185
1351.72,0.145202
1352.92,0.152303
1354.12,0.16154
1355.32,0.149571
1356.52,0.125784
1357.73,0.106958
1358.93,0.105544
1360.13,0.10713
1361.33,0.108386
1362.53,0.114556
1363.74,0.125015
1364.94,0.125404
1366.14,0.121653
1367.34,0.117437
1368.54,0.124263
1369.74,0.126064
1370.95,0.11787
1372.15,0.10886
1373.35,0.117093
1374.55,0.12371
1375.75,0.121053
1376.96,0.112817
1378.16,0.107238
1379.36,0.106185
1380.56,0.108955
1381.76,0.108759
1382.96,0.114411
1384.17,0.124022
1385.37,0.123136
1386.57,0.115856
1387.77,0.0983434
1388.97,0.0898014
1390.18,0.0985541
1391.38,0.113347
1392.58,0.111955
1393.78,0.103965
1394.98,0.0944908
1396.18,0.0924153
1397.39,0.0974491
1398.59,0.0934063
1399.79,0.0937939
1400.99,0.105945
1402.19,0.111467
1403.4,0.110237
1404.6,0.108822
1405.8,0.107701
1407,0.123078
1408.2,0.129453
1409.4,0.131041
1410.61,0.132789
1411.81,0.123666
1413.01,0.117058
1414.21,0.109138
1415.41,0.0956968
1416.62,0.088732
1417.82,0.076058
1419.02,0.0684638
1420.22,0.0753547
1421.42,0.0821406
1422.62,0.0745293
1423.83,0.0618072
1425.03,0.0504408
1426.23,0.0489593
1427.43,0.0608591
1428.63,0.0600277
1429.84,0.0560295
1431.04,0.058753
1432.24,0.061325
1433.44,0.0615708
1434.64,0.0665214
1435.84,0.0756014
1437.05,0.0964991
1438.25,0.112774
1439.45,0.120588
1440.65,0.123025
1441.85,0.124831
1443.06,0.116502
1444.26,0.107779
1445.46,0.110082
1446.66,0.122518
1447.86,0.134532
1449.06,0.13166
1450.27,0.114972
1451.47,0.102385
1452.67,0.10161
1453.87,0.108873
1455.07,0.11538
1456.28,0.118363
1457.48,0.117759
1458.68,0.107345
1459.88,0.0980801
1461.08,0.0886268
1462.28,0.087248
1463.49,0.0924467
1464.69,0.0923472
1465.89,0.0847096
1467.09,0.0804511
1468.29,0.0740808
1469.5,0.0705009
1470.7,0.0687898
1471.9,0.0711158
1473.1,0.0797276
1474.3,0.0816177
1475.5,0.0770089
1476.71,0.0619861
1477.91,0.052396
1479.11,0.0486207
1480.31,0.0492254
1481.51,0.0522067
1482.72,0.0587474
1483.92,0.0589574
1485.12,0.0589425
1486.32,0.0543039
1487.52,0.0526559
1488.72,0.0519958
1489.93,0.0439829
1491.13,0.0378463
1492.33,0.041321
1493.53,0.0495485
1494.73,0.0498442
1495.94,0.0431239
1497.14,0.0355277
1498.34,0.0404038
1499.54,0.0486902
1500.74,0.0428938
1501.94,0.0268385
1503.15,0.022211
1504.35,0.0224041
1505.55,0.0392759
1506.75,0.0458644
1507.95,0.047667
1509.16,0.042248
1510.36,0.0351763
1511.56,0.0306058
1512.76,0.0403896
1513.96,0.0479858
1515.16,0.0587724
1516.37,0.0538261
1517.57,0.0461782
1518.77,0.0387193
1519.97,0.0338743
1521.17,0.0300001
1522.38,0.0364466
1523.58,0.0377332
1524.78,0.0363608
1525.98,0.03637
1527.18,0.0485319
1528.38,0.0471101
1529.59,0.0391767
1530.79,0.0229281
1531.99,0.0226425
1533.19,0.0383662
1534.39,0.0525362
1535.6,0.0431079
1536.8,0.0366882
1538,0.0340579
1539.2,0.0406476
1540.4,0.0428
1541.6,0.0412585
1542.81,0.0445451
1544.01,0.0455655
1545.21,0.0473186
1546.41,0.0530522
1547.61,0.052061
1548.82,0.062454
1550.02,0.0671872
1551.22,0.0596233
1552.42,0.0571429
1553.62,0.0605164
1554.82,0.0647036
1556.03,0.0728127
1557.23,0.0688251
1558.43,0.0602014
1559.63,0.0584633
1560.83,0.0598074
1562.04,0.0594642
1563.24,0.0666564
1564.44,0.0748947
1565.64,0.0797773
1566.84,0.0822145
1568.04,0.0777039
1569.25,0.0759114
1570.45,0.0795397
1571.65,0.0778412
1572.85,0.0812395
1574.05,0.0871804
1575.26,0.0892926
1576.46,0.0945458
1577.66,0.100857
1578.86,0.105877
1580.06,0.111436
1581.26,0.108439
1582.47,0.105373
1583.67,0.113106
1584.87,0.114199
1586.07,0.118504
1587.27,0.12486
1588.48,0.123763
1589.68,0.118293
1590.88,0.119955
1592.08,0.12669
1593.28,0.153859
1594.48,0.176376
1595.69,0.187478
1596.89,0.192157
1598.09,0.204605
1599.29,0.232379
1600.49,0.277684
1601.7,0.322078
1602.9,0.368836
1604.1,0.420844
1605.3,0.482497
1606.5,0.565851
1607.7,0.664535
1608.91,0.769235
1610.11,0.877609
1611.31,0.958106
1612.51,0.984445
1613.71,0.966075
1614.92,0.891767
1616.12,0.777997
1617.32,0.643901
1618.52,0.4963
1619.72,0.378037
1620.92,0.307327
1622.13,0.261456
1623.33,0.218455
1624.53,0.167405
1625.73,0.128074
1626.93,0.120845
1628.14,0.123614
1629.34,0.119857
1630.54,0.104897
1631.74,0.0932104
1632.94,0.0799623
1634.14,0.0777491
1635.35,0.0776574
1636.55,0.0734236
1637.75,0.0743799
1638.95,0.0709237
1640.15,0.0674038
1641.36,0.064554
1642.56,0.0588073
1643.76,0.0621385
1644.96,0.0720223
1646.16,0.0776812
1647.36,0.0733737
1648.57,0.0678869
1649.77,0.0640209
1650.97,0.0584341
1652.17,0.0588652
1653.37,0.0641308
1654.58,0.0644902
1655.78,0.0721419
1656.98,0.0761092
1658.18,0.0809179
1659.38,0.083561
1660.58,0.0773609
1661.79,0.0693446
1662.99,0.0720039
1664.19,0.0757607
1665.39,0.0621993
1666.59,0.0522613
1667.8,0.0437749
1669,0.0510224
1670.2,0.0717032
1671.4,0.0799544
1672.6,0.0660654
1673.8,0.0555197
1675.01,0.0474275
1676.21,0.0479651
1677.41,0.0483625
1678.61,0.0578214
1679.81,0.0758657
1681.02,0.0896996
1682.22,0.0879763
1683.42,0.0769922
1684.62,0.0707778
1685.82,0.0720965
1687.02,0.0691858
1688.23,0.0652078
1689.43,0.0649465
1690.63,0.0649623
1691.83,0.0654926
1693.03,0.0689243
1694.24,0.0769881
1695.44,0.07997
1696.64,0.0783478
1697.84,0.075511
1699.04,0.072991
1700.24,0.077779
1701.45,0.085344
1702.65,0.0787968
1703.85,0.0803634
1705.05,0.0838276
1706.25,0.105294
1707.46,0.12438
1708.66,0.145025
1709.86,0.157223
1711.06,0.184524
1712.26,0.211675
1713.46,0.251344
1714.67,0.278639
1715.87,0.313207
1717.07,0.33825
1718.27,0.365692
1719.47,0.391148
1720.68,0.411232
1721.88,0.42289
1723.08,0.432983
1724.28,0.439391
1725.48,0.443969
1726.68,0.443297
1727.89,0.439439
1729.09,0.443355
1730.29,0.431624
1731.49,0.409793
1732.69,0.386552
1733.9,0.365629
1735.1,0.347318
1736.3,0.320899
1737.5,0.293315
1738.7,0.272509
1739.9,0.252889
1741.11,0.229323
1742.31,0.196835
1743.51,0.16969
1744.71,0.153598
1745.91,0.150452
1747.12,0.14145
1748.32,0.124996
1749.52,0.107094
1750.72,0.0970506
1751.92,0.102473
1753.12,0.110027
1754.33,0.10467
1755.53,0.10172
1756.73,0.105416
1757.93,0.0988712
1759.13,0.0927501
1760.34,0.0816084
1761.54,0.0780624
1762.74,0.0715432
1763.94,0.0790577
1765.14,0.0848433
1766.34,0.0874967
1767.55,0.0772662
1768.75,0.071729
1769.95,0.0681905
1771.15,0.067642
1772.35,0.0575777
1773.56,0.0418364
1774.76,0.0434209
1775.96,0.0591832
1777.16,0.062257
1778.36,0.0591622
1779.56,0.0535467
1780.77,0.0531118
1781.97,0.0673694
1783.17,0.0698678
1784.37,0.0631399
1785.57,0.0524932
1786.78,0.0455355
1787.98,0.0497889
1789.18,0.0570872
1790.38,0.0594058
1791.58,0.0667947
1792.78,0.0637132
1793.99,0.0619078
1795.19,0.0577359
1796.39,0.0538854
1797.59,0.055857
1798.79,0.0650984
1800,0.0691679
1801.2,0.0716846
1802.4,0.0667658
1803.6,0.0554236
1804.8,0.0527122
1806,0.0556701
1807.21,0.052958
1808.41,0.0483231
1809.61,0.0434513
1810.81,0.0379604
1812.01,0.0436069
1813.22,0.0515587
1814.42,0.0568894
1815.62,0.0614783
1816.82,0.0616711
1818.02,0.0612344
1819.22,0.0660176
1820.43,0.0659657
1821.63,0.0574974
1822.83,0.0538244
1824.03,0.0564747
1825.23,0.0583803
1826.44,0.0566719
1827.64,0.0499348
1828.84,0.0548043
1830.04,0.0641442
1831.24,0.0628146
1832.44,0.0554787
1833.65,0.0531717
1834.85,0.0601332
1836.05,0.0671891
1837.25,0.0637146
1838.45,0.0552527
1839.66,0.046409
1840.86,0.0438736
1842.06,0.0451411
1843.26,0.0483827
1844.46,0.0547324
1845.66,0.057684