File: Raman_data/PLA.csv
200.235,0.243861
201.544,0.222252
202.852,0.209945
204.161,0.207473
205.469,0.210488
206.778,0.206175
208.086,0.205762
209.395,0.201421
210.703,0.195973
212.012,0.182818
213.32,0.174709
214.629,0.169194
215.937,0.166322
217.246,0.156973
218.554,0.157623
219.863,0.169013
221.171,0.175058
222.48,0.165603
223.788,0.157068
225.096,0.149451
226.405,0.139897
227.713,0.129356
229.022,0.111442
230.33,0.103673
231.639,0.114188
232.947,0.131317
234.256,0.141147
235.564,0.142153
236.873,0.130449
238.181,0.108395
239.49,0.0982437
240.798,0.0998091
242.107,0.107954
243.415,0.123533
244.724,0.127442
246.032,0.125026
247.341,0.127999
248.649,0.118447
249.958,0.10785
251.266,0.102326
252.575,0.0998633
253.883,0.0973132
255.192,0.0831263
256.5,0.0720748
257.809,0.072504
259.117,0.0800494
260.425,0.0830458
261.734,0.0782208
263.042,0.0722319
264.351,0.0759504
265.659,0.0768961
266.968,0.0693937
268.276,0.0582768
269.585,0.0519977
270.893,0.0535338
272.202,0.0596085
273.51,0.0657146
274.819,0.0708947
276.127,0.0753258
277.436,0.0821638
278.744,0.0767462
280.053,0.0617541
281.361,0.0602272
282.67,0.0788527
283.978,0.111885
285.287,0.137584
286.595,0.13047
287.904,0.115628
289.212,0.127338
290.521,0.151834
291.829,0.162795
293.137,0.181534
294.446,0.19182
295.754,0.199908
297.063,0.209173
298.371,0.220756
299.68,0.222821
300.988,0.236973
302.297,0.237149
303.605,0.236838
304.914,0.23967
306.222,0.244914
307.531,0.239641
308.839,0.241518
310.148,0.233799
311.456,0.215246
312.765,0.209111
314.073,0.228077
315.382,0.239564
316.69,0.239002
317.999,0.227182
319.307,0.210611
320.616,0.200454
321.924,0.199278
323.233,0.188454
324.541,0.179002
325.85,0.187005
327.158,0.198604
328.466,0.198788
329.775,0.177111
331.083,0.13414
332.392,0.110973
333.7,0.10953
335.009,0.0986608
336.317,0.0883286
337.626,0.0735286
338.934,0.0736778
340.243,0.089829
341.551,0.0973079
342.86,0.0905325
344.168,0.0801639
345.477,0.0781975
346.785,0.0921084
348.094,0.0837999
349.402,0.0771918
350.711,0.0737863
352.019,0.0836084
353.328,0.098765
354.636,0.0987248
355.945,0.0939355
357.253,0.108292
358.562,0.116714
359.87,0.127255
361.178,0.125603
362.487,0.11606
363.795,0.114515
365.104,0.10806
366.412,0.105703
367.721,0.103163
369.029,0.0991411
370.338,0.105251
371.646,0.115158
372.955,0.125496
374.263,0.141562
375.572,0.149398
376.88,0.147999
378.189,0.14752
379.497,0.147144
380.806,0.148999
382.114,0.164342
383.423,0.184938
384.731,0.207833
386.04,0.233121
387.348,0.254593
388.657,0.278169
389.965,0.310649
391.274,0.328942
392.582,0.329682
393.891,0.326508
395.199,0.336575
396.507,0.367635
397.816,0.399535
399.124,0.39747
400.433,0.387045
401.741,0.384447
403.05,0.383771
404.358,0.379295
405.667,0.377137
406.975,0.37892
408.284,0.376028
409.592,0.355549
410.901,0.338455
412.209,0.329653
413.518,0.329997
414.826,0.31886
416.135,0.295084
417.443,0.273478
418.752,0.23813
420.06,0.198875
421.369,0.178574
422.677,0.16903
423.986,0.155401
425.294,0.144407
426.603,0.12884
427.911,0.122452
429.219,0.125892
430.528,0.123682
431.836,0.115675
433.145,0.102142
434.453,0.072224
435.762,0.0437214
437.07,0.0516964
438.379,0.0664353
439.687,0.0724753
440.996,0.0659768
442.304,0.055408
443.613,0.0464856
444.921,0.0487788
446.23,0.0456772
447.538,0.0456402
448.847,0.0441923
450.155,0.0294616
451.464,0.00951577
452.772,0.0110027
454.081,0.0286474
455.389,0.0362663
456.698,0.0310932
458.006,0.0246465
459.315,0.0287287
460.623,0.0422609
461.932,0.037923
463.24,0.0239658
464.548,0.0290848
465.857,0.03798
467.165,0.0353906
468.474,0.0316318
469.782,0.0329838
471.091,0.0438083
472.399,0.0586575
473.708,0.0517056
475.016,0.0388268
476.325,0.0353266
477.633,0.0255019
478.942,0.0208276
480.25,0.0289675
481.559,0.0371519
482.867,0.0462875
484.176,0.0392215
485.484,0.0234682
486.793,0.0206036
488.101,0.0268083
489.41,0.0394283
490.718,0.0439211
492.027,0.0348658
493.335,0.0334598
494.644,0.0426143
495.952,0.051077
497.26,0.0458754
498.569,0.0378378
499.877,0.0340279
501.186,0.0318872
502.494,0.0374889
503.803,0.0399664
505.111,0.0414706
506.42,0.0484111
507.728,0.0527642
509.037,0.0505497
510.345,0.0605595
511.654,0.0643299
512.962,0.0649588
514.271,0.072477
515.579,0.0686124
516.888,0.0598641
518.196,0.0640129
519.505,0.0683899
520.813,0.0666065
522.122,0.0625987
523.43,0.0524814
524.739,0.0535803
526.047,0.0568642
527.356,0.05619
528.664,0.0545836
529.973,0.0612233
531.281,0.0690328
532.589,0.0760155
533.898,0.0657664
535.206,0.045481
536.515,0.0421201
537.823,0.0551206
539.132,0.0665868
540.44,0.0739818
541.749,0.0634111
543.057,0.052577
544.366,0.0505671
545.674,0.0530081
546.983,0.0518599
548.291,0.0544742
549.6,0.0446954
550.908,0.032516
552.217,0.0264632
553.525,0.0348869
554.834,0.0415486
556.142,0.0466163
557.451,0.0434944
558.759,0.042077
560.068,0.0442491
561.376,0.04975
562.685,0.0463564
563.993,0.0424034
565.301,0.0488205
566.61,0.0584366
567.918,0.0621574
569.227,0.0619659
570.535,0.0602493
571.844,0.0609482
573.152,0.0496934
574.461,0.0356748
575.769,0.0326478
577.078,0.0452856
578.386,0.0761729
579.695,0.086029
581.003,0.0775804
582.312,0.0745694
583.62,0.0741503
584.929,0.0758183
586.237,0.0757676
587.546,0.0736037
588.854,0.0854131
590.163,0.0934354
591.471,0.094528
592.78,0.0805454
594.088,0.0639449
595.397,0.0643889
596.705,0.0755655
598.014,0.0827754
599.322,0.103299
600.63,0.0986761
601.939,0.0911101
603.247,0.0902737
604.556,0.0805145
605.864,0.0804766
607.173,0.0866517
608.481,0.0777722
609.79,0.0833557
611.098,0.0863152
612.407,0.0815447
613.715,0.0908307
615.024,0.0919917
616.332,0.0941194
617.641,0.0922305
618.949,0.0710243
620.258,0.0643908
621.566,0.0740279
622.875,0.0842092
624.183,0.100477
625.492,0.105437
626.8,0.0953642
628.109,0.0919762
629.417,0.0827113
630.726,0.0835749
632.034,0.0854389
633.342,0.0835669
634.651,0.0896539
635.959,0.0973341
637.268,0.10395
638.576,0.113861
639.885,0.110012
641.193,0.105037
642.502,0.0975304
643.81,0.0910571
645.119,0.102962
646.427,0.117479
647.736,0.130109
649.044,0.126662
650.353,0.106998
651.661,0.0998251
652.97,0.102378
654.278,0.106923
655.587,0.113087
656.895,0.108522
658.204,0.116452
659.512,0.121374
660.821,0.111532
662.129,0.097223
663.438,0.0948513
664.746,0.1101
666.055,0.125393
667.363,0.14386
668.671,0.157089
669.98,0.166309
671.288,0.181048
672.597,0.196149
673.905,0.199921
675.214,0.196547
676.522,0.190739
677.831,0.203161
679.139,0.222948
680.448,0.223168
681.756,0.207208
683.065,0.200181
684.373,0.207409
685.682,0.215816
686.99,0.213835
688.299,0.192819
689.607,0.182317
690.916,0.173551
692.224,0.17432
693.533,0.186662
694.841,0.181905
696.15,0.180476
697.458,0.175594
698.767,0.158686
700.075,0.153322
701.383,0.156167
702.692,0.153113
704,0.155526
705.309,0.147037
706.617,0.147176
707.926,0.150852
709.234,0.153251
710.543,0.150251
711.851,0.156285
713.16,0.162724
714.468,0.158083
715.777,0.149854
717.085,0.136077
718.394,0.121895
719.702,0.11388
721.011,0.111637
722.319,0.116595
723.628,0.119447
724.936,0.108551
726.245,0.118914
727.553,0.136942
728.862,0.148025
730.17,0.146279
731.479,0.136371
732.787,0.149869
734.096,0.163054
735.404,0.153631
736.712,0.142757
738.021,0.140881
739.329,0.143261
740.638,0.156588
741.946,0.154952
743.255,0.155013
744.563,0.145831
745.872,0.133941
747.18,0.132687
748.489,0.152546
749.797,0.163261
751.106,0.148604
752.414,0.119573
753.723,0.102613
755.031,0.0987374
756.34,0.116391
757.648,0.128555
758.957,0.126818
760.265,0.123082
761.574,0.128056
762.882,0.13567
764.191,0.130112
765.499,0.111222
766.808,0.102281
768.116,0.101592
769.424,0.106094
770.733,0.106563
772.041,0.101919
773.35,0.105394
774.658,0.100573
775.967,0.0938324
777.275,0.105905
778.584,0.126476
779.892,0.142201
781.201,0.138248
782.509,0.118612
783.818,0.100475
785.126,0.0950018
786.435,0.0960168
787.743,0.101076
789.052,0.0959157
790.36,0.0957743
791.669,0.12588
792.977,0.16007
794.286,0.202977
795.594,0.236645
796.903,0.259591
798.211,0.285392
799.52,0.296441
800.828,0.281611
802.137,0.262224
803.445,0.240455
804.753,0.234908
806.062,0.230587
807.37,0.211408
808.679,0.178225
809.987,0.135259
811.296,0.117212
812.604,0.11167
813.913,0.1037
815.221,0.0940119
816.53,0.0831047
817.838,0.0635474
819.147,0.0445127
820.455,0.0311693
821.764,0.033809
823.072,0.0417156
824.381,0.05688
825.689,0.0628637
826.998,0.071455
828.306,0.0793599
829.615,0.0711887
830.923,0.0494481
832.232,0.0410504
833.54,0.0403682
834.849,0.0646391
836.157,0.0882629
837.465,0.0936586
838.774,0.089014
840.082,0.089214
841.391,0.098684
842.699,0.11316
844.008,0.114835
845.316,0.118349
846.625,0.132421
847.933,0.144464
849.242,0.158157
850.55,0.167406
851.859,0.187698
853.167,0.220745
854.476,0.255187
855.784,0.293777
857.093,0.333142
858.401,0.367854
859.71,0.404704
861.018,0.452291
862.327,0.520286
863.635,0.59337
864.944,0.656728
866.252,0.724744
867.561,0.800779
868.869,0.88403
870.178,0.950407
871.486,0.990883
872.794,0.997206
874.103,0.973647
875.411,0.93299
876.72,0.882105
878.028,0.82898
879.337,0.763257
880.645,0.667316
881.954,0.567187
883.262,0.477224
884.571,0.408346
885.879,0.367846
887.188,0.327978
888.496,0.275363
889.805,0.219724
891.113,0.192405
892.422,0.182179
893.73,0.174037
895.039,0.158508
896.347,0.143827
897.656,0.138947
898.964,0.145689
900.273,0.139619
901.581,0.138487
902.89,0.137981
904.198,0.131473
905.506,0.121835
906.815,0.124479
908.123,0.130112
909.432,0.121538
910.74,0.10994
912.049,0.109919
913.357,0.118721
914.666,0.124783
915.974,0.12893
917.283,0.130952
918.591,0.145194
919.9,0.153352
921.208,0.148634
922.517,0.140939
923.825,0.138348
925.134,0.134935
926.442,0.134523
927.751,0.125308
929.059,0.121341
930.368,0.117009
931.676,0.110261
932.985,0.111219
934.293,0.105565
935.602,0.0906222
936.91,0.0858443
938.219,0.0841349
939.527,0.0837488
940.835,0.0801509
942.144,0.0649893
943.452,0.0460649
944.761,0.0517034
946.069,0.0666244
947.378,0.0770184
948.686,0.0772478
949.995,0.0672706
951.303,0.0570052
952.612,0.0598362
953.92,0.0665052
955.229,0.07127
956.537,0.088392
957.846,0.113862
959.154,0.132646
960.463,0.14478
961.771,0.163321
963.08,0.173031
964.388,0.188467
965.697,0.190975
967.005,0.184939
968.314,0.175622
969.622,0.150541
970.931,0.126595
972.239,0.110516
973.547,0.089731
974.856,0.0720877
976.164,0.0567927
977.473,0.0458381
978.781,0.0438689
980.09,0.0279795
981.398,0.0245002
982.707,0.0405377
984.015,0.0443193
985.324,0.0356691
986.632,0.0244016
987.941,0.0135325
989.249,0.0109846
990.558,0.0205152
991.866,0.0241088
993.175,0.0274706
994.483,0.0227749
995.792,0.0143617
997.1,0.0194445
998.409,0.0496913
999.717,0.0554268
1001.03,0.0601513
1002.33,0.0530114
1003.64,0.0483365
1004.95,0.0540107
1006.26,0.0629986
1007.57,0.0639614
1008.88,0.0702332
1010.18,0.0635297
1011.49,0.0711077
1012.8,0.0787219
1014.11,0.0829993
1015.42,0.0847372
1016.73,0.0847076
1018.04,0.0866592
1019.34,0.0929663
1020.65,0.0910189
1021.96,0.0921434
1023.27,0.0996367
1024.58,0.108353
1025.89,0.112561
1027.2,0.121623
1028.5,0.139879
1029.81,0.16119
1031.12,0.173286
1032.43,0.188743
1033.74,0.212877
1035.05,0.244469
1036.35,0.270112
1037.66,0.281336
1038.97,0.282885
1040.28,0.288217
1041.59,0.298592
1042.9,0.310087
1044.21,0.314591
1045.51,0.303351
1046.82,0.278217
1048.13,0.263775
1049.44,0.253662
1050.75,0.237158
1052.06,0.216911
1053.36,0.196832
1054.67,0.189829
1055.98,0.183918
1057.29,0.16035
1058.6,0.145877
1059.91,0.131357
1061.22,0.118466
1062.52,0.106437
1063.83,0.0843459
1065.14,0.0760586
1066.45,0.0899994
1067.76,0.0920387
1069.07,0.0933229
1070.38,0.0882821
1071.68,0.0766278
1072.99,0.078846
1074.3,0.0953642
1075.61,0.117155
1076.92,0.131638
1078.23,0.129158
1079.53,0.125854
1080.84,0.123598
1082.15,0.138491
1083.46,0.160711
1084.77,0.174747
1086.08,0.18936
1087.39,0.204635
1088.69,0.213356
1090,0.236144
1091.31,0.251693
1092.62,0.247691
1093.93,0.252287
1095.24,0.253217
1096.54,0.25246
1097.85,0.253545
1099.16,0.246158
1100.47,0.229043
1101.78,0.223093
1103.09,0.212775
1104.4,0.202985
1105.7,0.19978
1107.01,0.201841
1108.32,0.195698
1109.63,0.180663
1110.94,0.164081
1112.25,0.155505
1113.55,0.159351
1114.86,0.169387
1116.17,0.17909
1117.48,0.208791
1118.79,0.242962
1120.1,0.259599
1121.41,0.258419
1122.71,0.258
1124.02,0.265197
1125.33,0.281905
1126.64,0.289279
1127.95,0.297124
1129.26,0.305281
1130.57,0.313541
1131.87,0.301298
1133.18,0.267525
1134.49,0.240152
1135.8,0.231124
1137.11,0.225463
1138.42,0.214111
1139.72,0.183271
1141.03,0.149508
1142.34,0.128241
1143.65,0.107856
1144.96,0.09033
1146.27,0.0907069
1147.58,0.0970785
1148.88,0.0949949
1150.19,0.0939072
1151.5,0.0871287
1152.81,0.0943585
1154.12,0.104884
1155.43,0.0973084
1156.73,0.0821069
1158.04,0.0745798
1159.35,0.0675633
1160.66,0.0732771
1161.97,0.0757181
1163.28,0.0697704
1164.59,0.0604608
1165.89,0.0564039
1167.2,0.0628155
1168.51,0.0744467
1169.82,0.074974
1171.13,0.066943
1172.44,0.0675541
1173.75,0.076781
1175.05,0.102424
1176.36,0.122533
1177.67,0.130458
1178.98,0.134479
1180.29,0.139019
1181.6,0.147449
1182.9,0.157496
1184.21,0.147376
1185.52,0.138624
1186.83,0.133907
1188.14,0.122666
1189.45,0.099014
1190.76,0.0820805
1192.06,0.0727855
1193.37,0.065977
1194.68,0.0553582
1195.99,0.0420999
1197.3,0.0446803
1198.61,0.0680896
1199.91,0.0718602
1201.22,0.0587557
1202.53,0.0577296
1203.84,0.0640549
1205.15,0.0771442
1206.46,0.0855958
1207.77,0.081063
1209.07,0.0791445
1210.38,0.0837527
1211.69,0.0831353
1213,0.0955526
1214.31,0.115678
1215.62,0.119478
1216.92,0.105821
1218.23,0.0940073
1219.54,0.0957003
1220.85,0.107079
1222.16,0.117241
1223.47,0.120807
1224.78,0.105648
1226.08,0.0796636
1227.39,0.0636205
1228.7,0.0600967
1230.01,0.0713885
1231.32,0.0720964
1232.63,0.0540248
1233.94,0.0482641
1235.24,0.0557647
1236.55,0.0666423
1237.86,0.0731196
1239.17,0.076523
1240.48,0.0744294
1241.79,0.0684796
1243.09,0.0549668
1244.4,0.0479303
1245.71,0.0500701
1247.02,0.0612585
1248.33,0.0633082
1249.64,0.0623819
1250.95,0.0614114
1252.25,0.0663842
1253.56,0.0737714
1254.87,0.0733633
1256.18,0.0647213
1257.49,0.0635498
1258.8,0.0665215
1260.1,0.0722515
1261.41,0.0819855
1262.72,0.0821849
1264.03,0.0774762
1265.34,0.0789485
1266.65,0.0835138
1267.96,0.0852665
1269.26,0.0932828
1270.57,0.0843725
1271.88,0.0700548
1273.19,0.0600579
1274.5,0.0580015
1275.81,0.0679221
1277.12,0.0869807
1278.42,0.0845335
1279.73,0.0808652
1281.04,0.0806656
1282.35,0.0830184
1283.66,0.0965694
1284.97,0.109331
1286.27,0.129843
1287.58,0.151056
1288.89,0.162393
1290.2,0.166989
1291.51,0.173671
1292.82,0.177311
1294.13,0.178394
1295.43,0.188195
1296.74,0.195999
1298.05,0.205351
1299.36,0.204127
1300.67,0.192743
1301.98,0.174331
1303.28,0.166863
1304.59,0.158025
1305.9,0.161098
1307.21,0.16242
1308.52,0.162001
1309.83,0.157619
1311.14,0.154091
1312.44,0.147336
1313.75,0.131913
1315.06,0.118213
1316.37,0.108991
1317.68,0.111907
1318.99,0.116431
1320.29,0.11378
1321.6,0.106423
1322.91,0.104406
1324.22,0.104773
1325.53,0.109782
1326.84,0.111936
1328.15,0.112207
1329.45,0.114803
1330.76,0.107068
1332.07,0.104222
1333.38,0.110756
1334.69,0.116505
1336,0.11337
1337.31,0.111963
1338.61,0.117951
1339.92,0.136166
1341.23,0.155896
1342.54,0.172337
1343.85,0.183259
1345.16,0.192419
1346.46,0.192434
1347.77,0.189874
1349.08,0.195565
1350.39,0.198561
1351.7,0.199262
1353.01,0.190199
1354.32,0.172579
1355.62,0.160054
1356.93,0.150901
1358.24,0.142786
1359.55,0.133463
1360.86,0.121082
1362.17,0.105921
1363.47,0.109566
1364.78,0.114089
1366.09,0.100471
1367.4,0.0891505
1368.71,0.0847023
1370.02,0.083946
1371.33,0.0920642
1372.63,0.0881937
1373.94,0.0870425
1375.25,0.0979965
1376.56,0.0976191
1377.87,0.0993671
1379.18,0.102613
1380.49,0.11179
1381.79,0.126869
1383.1,0.135916
1384.41,0.132768
1385.72,0.129965
1387.03,0.1202
1388.34,0.116871
1389.64,0.112814
1390.95,0.102339
1392.26,0.0976767
1393.57,0.104354
1394.88,0.103336
1396.19,0.0912487
1397.5,0.0741073
1398.8,0.0550221
1400.11,0.046647
1401.42,0.0522407
1402.73,0.0524626
1404.04,0.0584493
1405.35,0.0670636
1406.65,0.0634954
1407.96,0.0594065
1409.27,0.0554423
1410.58,0.0442915
1411.89,0.0420401
1413.2,0.0466733
1414.51,0.0519494
1415.81,0.0611498
1417.12,0.0634103
1418.43,0.0500525
1419.74,0.0371606
1421.05,0.0383355
1422.36,0.0463488
1423.66,0.0589815
1424.97,0.0608344
1426.28,0.0549852
1427.59,0.0516361
1428.9,0.0582729
1430.21,0.0686994
1431.52,0.0768879
1432.82,0.0871207
1434.13,0.103901
1435.44,0.123701
1436.75,0.146609
1438.06,0.158773
1439.37,0.176778
1440.68,0.206934
1441.98,0.238771
1443.29,0.26431
1444.6,0.274517
1445.91,0.285488
1447.22,0.302711
1448.53,0.309914
1449.83,0.31184
1451.14,0.308147
1452.45,0.306284
1453.76,0.318941
1455.07,0.32357
1456.38,0.319061
1457.69,0.307175
1458.99,0.288119
1460.3,0.272677
1461.61,0.261746
1462.92,0.235827
1464.23,0.20135
1465.54,0.170786
1466.84,0.142113
1468.15,0.129167
1469.46,0.125651
1470.77,0.113973
1472.08,0.101672
1473.39,0.0894776
1474.7,0.0796108
1476,0.0754376
1477.31,0.066063
1478.62,0.0557196
1479.93,0.0526114
1481.24,0.0554976
1482.55,0.0602636
1483.86,0.0578668
1485.16,0.0524883
1486.47,0.0454425
1487.78,0.0405218
1489.09,0.0360558
1490.4,0.0375198
1491.71,0.0295732
1493.01,0.0233617
1494.32,0.0202224
1495.63,0.0187568
1496.94,0.0237841
1498.25,0.035211
1499.56,0.0348852
1500.87,0.0342097
1502.17,0.0312269
1503.48,0.0297444
1504.79,0.032929
1506.1,0.0330189
1507.41,0.0283065
1508.72,0.0254906
1510.02,0.0238917
1511.33,0.0196854
1512.64,0.0125818
1513.95,0.0102349
1515.26,0.0132126
1516.57,0.0251836
1517.88,0.0359757
1519.18,0.0428952
1520.49,0.0396212
1521.8,0.0432535
1523.11,0.0451902
1524.42,0.0438096
1525.73,0.0332424
1527.03,0.0308047
1528.34,0.0289306
1529.65,0.0339234
1530.96,0.0348262
1532.27,0.0341712
1533.58,0.0351354
1534.89,0.0398609
1536.19,0.0350407
1537.5,0.0298199
1538.81,0.0226565
1540.12,0.0204723
1541.43,0.0279435
1542.74,0.0324506
1544.05,0.0332853
1545.35,0.035344
1546.66,0.0362167
1547.97,0.0381193
1549.28,0.0392849
1550.59,0.0413555
1551.9,0.0489702
1553.2,0.0535848
1554.51,0.0452124
1555.82,0.0425502
1557.13,0.0416432
1558.44,0.0458765
1559.75,0.0550184
1561.06,0.0580155
1562.36,0.0566619
1563.67,0.0567182
1564.98,0.0503226
1566.29,0.0556595
1567.6,0.0665388
1568.91,0.0711955
1570.21,0.069437
1571.52,0.0588656
1572.83,0.0500305
1574.14,0.0557304
1575.45,0.0665348
1576.76,0.070091
1578.07,0.0641747
1579.37,0.0560162
1580.68,0.0654836
1581.99,0.0722997
1583.3,0.071567
1584.61,0.0729288
1585.92,0.0732001
1587.22,0.0715283
1588.53,0.0726154
1589.84,0.065338
1591.15,0.0696963
1592.46,0.0756663
1593.77,0.07927
1595.08,0.0798135
1596.38,0.0787605
1597.69,0.07999
1599,0.0843367
1600.31,0.092846
1601.62,0.0974774
1602.93,0.0899558
1604.24,0.0839122
1605.54,0.0863389
1606.85,0.0891431
1608.16,0.0927386
1609.47,0.0912549
1610.78,0.089506
1612.09,0.0897849
1613.39,0.0875489
1614.7,0.081452
1616.01,0.0787178
1617.32,0.0792043
1618.63,0.0797172
1619.94,0.0838556
1621.25,0.0802825
1622.55,0.0764282
1623.86,0.079986
1625.17,0.0835
1626.48,0.0892353
1627.79,0.0905206
1629.1,0.085041
1630.4,0.0841992
1631.71,0.0853421
1633.02,0.0912196
1634.33,0.0937162
1635.64,0.0904434
1636.95,0.0897475
1638.26,0.0896221
1639.56,0.0894867
1640.87,0.0922866
1642.18,0.0890181
1643.49,0.0951482
1644.8,0.104973
1646.11,0.0998549
1647.42,0.0991222
1648.72,0.0982835
1650.03,0.0921928
1651.34,0.101784
1652.65,0.103994
1653.96,0.100666
1655.27,0.101685
1656.57,0.0960025
1657.88,0.09826
1659.19,0.107508
1660.5,0.115772
1661.81,0.132458
1663.12,0.136438
1664.43,0.135953
1665.73,0.123224
1667.04,0.112707
1668.35,0.116773
1669.66,0.124854
1670.97,0.127269
1672.28,0.128665
1673.58,0.11981
1674.89,0.111309
1676.2,0.109795
1677.51,0.116228
1678.82,0.1236
1680.13,0.126543
1681.44,0.125213
1682.74,0.125611
1684.05,0.132046
1685.36,0.137665
1686.67,0.138863
1687.98,0.139646
1689.29,0.138012
1690.59,0.132622
1691.9,0.125956
1693.21,0.128084
1694.52,0.131457
1695.83,0.135808
1697.14,0.131117
1698.45,0.131196
1699.75,0.135656
1701.06,0.142523
1702.37,0.13965
1703.68,0.133733
1704.99,0.126156
1706.3,0.130475
1707.61,0.1417
1708.91,0.160139
1710.22,0.168387
1711.53,0.159074
1712.84,0.145569
1714.15,0.140074
1715.46,0.150174
1716.76,0.164376
1718.07,0.160837
1719.38,0.15138
1720.69,0.150269
1722,0.153481
1723.31,0.159673
1724.62,0.160573
1725.92,0.15836
1727.23,0.15688
1728.54,0.153849
1729.85,0.152177
1731.16,0.154208
1732.47,0.158983
1733.77,0.163226
1735.08,0.168694
1736.39,0.174097
1737.7,0.18395
1739.01,0.200246
1740.32,0.214229
1741.63,0.21968
1742.93,0.224448
1744.24,0.231939
1745.55,0.24818
1746.86,0.262057