File: Raman_data/Silicone.csv
200.376,0.574137
201.578,0.539289
202.78,0.519631
203.982,0.504598
205.184,0.486443
206.385,0.466897
207.587,0.440476
208.789,0.412724
209.991,0.398434
211.193,0.380874
212.394,0.365475
213.596,0.351995
214.798,0.321073
216,0.306729
217.202,0.293739
218.404,0.271363
219.605,0.263018
220.807,0.253244
222.009,0.237999
223.211,0.213577
224.413,0.206156
225.614,0.196088
226.816,0.17995
228.018,0.165154
229.22,0.165025
230.422,0.159706
231.624,0.140357
232.825,0.14646
234.027,0.133321
235.229,0.121041
236.431,0.125276
237.633,0.118872
238.834,0.105288
240.036,0.0914199
241.238,0.0846257
242.44,0.0890869
243.642,0.0870863
244.844,0.0759646
246.045,0.071771
247.247,0.074291
248.449,0.0755299
249.651,0.0722064
250.853,0.0648076
252.054,0.0603552
253.256,0.0582487
254.458,0.0570823
255.66,0.0502625
256.862,0.0531191
258.064,0.0570275
259.265,0.0569531
260.467,0.0501593
261.669,0.0498704
262.871,0.050151
264.073,0.038403
265.274,0.0427253
266.476,0.0439999
267.678,0.0399537
268.88,0.0308307
270.082,0.0281036
271.283,0.0228489
272.485,0.0168421
273.687,0.02196
274.889,0.0232324
276.091,0.023449
277.293,0.0231282
278.494,0.0256347
279.696,0.0173742
280.898,0.0117444
282.1,0.0157467
283.302,0.0104072
284.503,0.0175005
285.705,0.0232759
286.907,0.00977815
288.109,0.00598322
289.311,0.007306
290.513,0.0117506
291.714,0.0197175
292.916,0.0195607
294.118,0.0156371
295.32,0.0124143
296.522,0.0147705
297.723,0.0185435
298.925,0.0237936
300.127,0.0269125
301.329,0.0182555
302.531,0.0202824
303.733,0.0235649
304.934,0.0254305
306.136,0.0140068
307.338,0.0150153
308.54,0.0155913
309.742,0.0148986
310.943,0.0198175
312.145,0.0183755
313.347,0.0187692
314.549,0.0222535
315.751,0.020293
316.953,0.0214745
318.154,0.0227834
319.356,0.0238283
320.558,0.0263395
321.76,0.0215246
322.962,0.0185879
324.163,0.020743
325.365,0.0212127
326.567,0.022068
327.769,0.0244265
328.971,0.0305691
330.173,0.0279643
331.374,0.0360657
332.576,0.0410694
333.778,0.0286612
334.98,0.024184
336.182,0.0295562
337.383,0.0322348
338.585,0.0208741
339.787,0.0307304
340.989,0.0295411
342.191,0.027392
343.393,0.0303242
344.594,0.0332044
345.796,0.0392348
346.998,0.0420088
348.2,0.033821
349.402,0.0300262
350.603,0.0307083
351.805,0.0324194
353.007,0.0359456
354.209,0.036931
355.411,0.0362119
356.613,0.0342006
357.814,0.0337371
359.016,0.0386374
360.218,0.0366664
361.42,0.0305051
362.622,0.0269233
363.823,0.0217682
365.025,0.024819
366.227,0.0271249
367.429,0.0222872
368.631,0.0253081
369.833,0.0335613
371.034,0.037642
372.236,0.027877
373.438,0.0123366
374.64,0.0168479
375.842,0.0208229
377.043,0.0161946
378.245,0.0221501
379.447,0.0223532
380.649,0.019996
381.851,0.0178898
383.053,0.0172241
384.254,0.0188356
385.456,0.0196272
386.658,0.0166969
387.86,0.0138126
389.062,0.0167411
390.263,0.0171283
391.465,0.0126854
392.667,0.0199513
393.869,0.0201556
395.071,0.0181133
396.273,0.0168137
397.474,0.0198759
398.676,0.0186905
399.878,0.0125398
401.08,0.00731311
402.282,0.0168132
403.483,0.0229606
404.685,0.0220842
405.887,0.0152529
407.089,0.012482
408.291,0.00845817
409.493,0.011272
410.694,0.0157569
411.896,0.00923908
413.098,0.00750732
414.3,0.00235202
415.502,0
416.703,0.00878685
417.905,0.00699467
419.107,0.0131259
420.309,0.0179106
421.511,0.00962052
422.713,0.0154531
423.914,0.0108404
425.116,0.00566165
426.318,0.00595332
427.52,0.0103271
428.722,0.013788
429.923,0.0149756
431.125,0.0152401
432.327,0.0248557
433.529,0.012391
434.731,0.0102267
435.933,0.0185179
437.134,0.0163836
438.336,0.0256348
439.538,0.0276572
440.74,0.0217201
441.942,0.0152411
443.143,0.0150666
444.345,0.0148506
445.547,0.0151558
446.749,0.0164774
447.951,0.0263764
449.153,0.0337518
450.354,0.0407878
451.556,0.0479679
452.758,0.0464129
453.96,0.046503
455.162,0.0484646
456.363,0.0545717
457.565,0.058043
458.767,0.0718863
459.969,0.0784199
461.171,0.080985
462.373,0.0938609
463.574,0.0986445
464.776,0.113453
465.978,0.128362
467.18,0.130068
468.382,0.152828
469.583,0.173212
470.785,0.192205
471.987,0.216468
473.189,0.246376
474.391,0.276485
475.593,0.309898
476.794,0.351214
477.996,0.407781
479.198,0.452329
480.4,0.501757
481.602,0.563661
482.803,0.638382
484.005,0.713413
485.207,0.768027
486.409,0.821052
487.611,0.890543
488.813,0.942532
490.014,0.986783
491.216,1
492.418,0.999407
493.62,0.98772
494.822,0.970006
496.023,0.946438
497.225,0.912146
498.427,0.853011
499.629,0.813481
500.831,0.769897
502.033,0.715026
503.234,0.651654
504.436,0.613947
505.638,0.562694
506.84,0.51347
508.042,0.474717
509.243,0.433908
510.445,0.401689
511.647,0.373478
512.849,0.343623
514.051,0.308393
515.253,0.302868
516.454,0.283905
517.656,0.252648
518.858,0.229546
520.06,0.215329
521.262,0.200881
522.463,0.187973
523.665,0.174639
524.867,0.153108
526.069,0.155139
527.271,0.149531
528.473,0.134215
529.674,0.126264
530.876,0.125212
532.078,0.111007
533.28,0.101182
534.482,0.100652
535.683,0.0965702
536.885,0.0852463
538.087,0.0797466
539.289,0.0768967
540.491,0.0706777
541.693,0.0796294
542.894,0.0771364
544.096,0.0675851
545.298,0.0586119
546.5,0.0484003
547.702,0.0533531
548.903,0.0513996
550.105,0.0447363
551.307,0.0509815
552.509,0.0478347
553.711,0.0502044
554.912,0.0510773
556.114,0.0426255
557.316,0.0405693
558.518,0.0354185
559.72,0.031071
560.922,0.0308089
562.123,0.0408224
563.325,0.0265103
564.527,0.031255
565.729,0.0361151
566.931,0.0279072
568.132,0.0249949
569.334,0.0253927
570.536,0.0256958
571.738,0.0251366
572.94,0.0226348
574.142,0.0211055
575.343,0.0208786
576.545,0.0204969
577.747,0.0193344
578.949,0.0191156
580.151,0.0143003
581.352,0.0159299
582.554,0.0195282
583.756,0.0139057
584.958,0.0149253
586.16,0.0226168
587.362,0.0250591
588.563,0.0167796
589.765,0.0124256
590.967,0.0166928
592.169,0.0145791
593.371,0.0127709
594.572,0.0221271
595.774,0.0166934
596.976,0.015447
598.178,0.017672
599.38,0.0212421
600.582,0.0145547
601.783,0.0205419
602.985,0.0229099
604.187,0.0217727
605.389,0.0155836
606.591,0.0148449
607.792,0.00911307
608.994,0.0107342
610.196,0.0147806
611.398,0.0133755
612.6,0.0131331
613.802,0.0134077
615.003,0.0130359
616.205,0.00943303
617.407,0.00253126
618.609,0.00793864
619.811,0.0180564
621.012,0.0222646
622.214,0.0215405
623.416,0.0214748
624.618,0.0190981
625.82,0.0189505
627.022,0.0191364
628.223,0.0156175
629.425,0.013485
630.627,0.0216991
631.829,0.0255097
633.031,0.0229032
634.232,0.0175537
635.434,0.0195278
636.636,0.0167312
637.838,0.0160187
639.04,0.019392
640.242,0.0102447
641.443,0.0250748
642.645,0.0241501
643.847,0.0164269
645.049,0.014327
646.251,0.0170573
647.452,0.0278055
648.654,0.023152
649.856,0.0139577
651.058,0.0223031
652.26,0.0330633
653.462,0.030093
654.663,0.0319543
655.865,0.0379332
657.067,0.0355445
658.269,0.0314388
659.471,0.0404863
660.672,0.0450465
661.874,0.0426499
663.076,0.0489161
664.278,0.0516694
665.48,0.0519343
666.682,0.0587943
667.883,0.0779103
669.085,0.0765234
670.287,0.0747344
671.489,0.0760437
672.691,0.0850853
673.892,0.100396
675.094,0.0924969
676.296,0.113216
677.498,0.12693
678.7,0.134773
679.902,0.147916
681.103,0.17026
682.305,0.179716
683.507,0.192915
684.709,0.206324
685.911,0.213598
687.112,0.244233
688.314,0.257285
689.516,0.268174
690.718,0.273733
691.92,0.273545
693.122,0.272396
694.323,0.268013
695.525,0.269182
696.727,0.278118
697.929,0.287832
699.131,0.301686
700.332,0.310237
701.534,0.324517
702.736,0.352411
703.938,0.386612
705.14,0.418159
706.342,0.456318
707.543,0.502051
708.745,0.542228
709.947,0.564268
711.149,0.583197
712.351,0.583961
713.552,0.573956
714.754,0.539241
715.956,0.495537
717.158,0.440072
718.36,0.383579
719.562,0.330019
720.763,0.278953
721.965,0.22855
723.167,0.18428
724.369,0.156077
725.571,0.134596
726.772,0.121258
727.974,0.115824
729.176,0.088742
730.378,0.079908
731.58,0.0749001
732.782,0.0693015
733.983,0.0614957
735.185,0.0496089
736.387,0.0549456
737.589,0.0512346
738.791,0.04392
739.992,0.0497005
741.194,0.0369262
742.396,0.0402593
743.598,0.0417284
744.8,0.0389296
746.002,0.0283899
747.203,0.0266978
748.405,0.031053
749.607,0.0298756
750.809,0.0273509
752.011,0.0275626
753.212,0.0218071
754.414,0.0164163
755.616,0.0214753
756.818,0.0266083
758.02,0.0262337
759.222,0.014008
760.423,0.0215422
761.625,0.0305695
762.827,0.0308232
764.029,0.0254726
765.231,0.0277104
766.432,0.0159468
767.634,0.0198652
768.836,0.0218771
770.038,0.0212833
771.24,0.0310853
772.442,0.0275887
773.643,0.033883
774.845,0.0411043
776.047,0.0446032
777.249,0.0469701
778.451,0.0525908
779.652,0.0617142
780.854,0.0733317
782.056,0.0787251
783.258,0.0803415
784.46,0.102561
785.662,0.113277
786.863,0.127175
788.065,0.131925
789.267,0.132061
790.469,0.149297
791.671,0.148905
792.872,0.153585
794.074,0.15605
795.276,0.151449
796.478,0.12843
797.68,0.127815
798.882,0.115469
800.083,0.107525
801.285,0.101187
802.487,0.0917493
803.689,0.0941962
804.891,0.0926858
806.092,0.0840496
807.294,0.0751572
808.496,0.0691969
809.698,0.055448
810.9,0.0531332
812.102,0.0493276
813.303,0.0493002
814.505,0.0500465
815.707,0.0425526
816.909,0.029363
818.111,0.0296981
819.312,0.0304598
820.514,0.0285935
821.716,0.0221788
822.918,0.0272209
824.12,0.0251258
825.321,0.0270258
826.523,0.0288714
827.725,0.0280882
828.927,0.0171585
830.129,0.0139726
831.331,0.01456
832.532,0.0165982
833.734,0.0161369
834.936,0.0100284
836.138,0.0175832
837.34,0.0165161
838.541,0.0181733
839.743,0.0162772
840.945,0.0127568
842.147,0.0236042
843.349,0.022463
844.551,0.0196727
845.752,0.0250543
846.954,0.0285218
848.156,0.0221973
849.358,0.030873
850.56,0.0398797
851.761,0.0399686
852.963,0.0411545
854.165,0.0459817
855.367,0.050036
856.569,0.0525285
857.771,0.0565719
858.972,0.0614437
860.174,0.0636372
861.376,0.06475
862.578,0.0700695
863.78,0.0719651
864.981,0.0762743
866.183,0.074237
867.385,0.0666984
868.587,0.0643733
869.789,0.0702713
870.991,0.0697543
872.192,0.0647022
873.394,0.060588
874.596,0.061082
875.798,0.0672065
877,0.0591183
878.201,0.0553203
879.403,0.0504988
880.605,0.0463779
881.807,0.0427213
883.009,0.0346007
884.211,0.039953
885.412,0.0330493
886.614,0.0259081
887.816,0.0252785
889.018,0.0277761
890.22,0.0279331
891.421,0.0263968
892.623,0.0174813
893.825,0.0163376
895.027,0.0185386
896.229,0.0146296
897.431,0.0126162
898.632,0.0192117
899.834,0.0187968
901.036,0.0190575
902.238,0.0198693
903.44,0.0131342
904.641,0.0127894
905.843,0.0153975
907.045,0.0159832
908.247,0.0121648
909.449,0.0083108
910.651,0.0238096
911.852,0.0193865
913.054,0.0098439
914.256,0.0116623
915.458,0.0158488
916.66,0.016211
917.861,0.0110942
919.063,0.012904
920.265,0.0155931
921.467,0.0160945
922.669,0.0132401
923.871,0.0094325
925.072,0.0243426
926.274,0.0291656
927.476,0.0262023
928.678,0.0174373
929.88,0.0148421
931.081,0.018146
932.283,0.0184229
933.485,0.0196625
934.687,0.013455
935.889,0.0122741
937.091,0.0169074
938.292,0.0271107
939.494,0.0317159
940.696,0.0258295
941.898,0.0163402
943.1,0.0195441
944.301,0.0221197
945.503,0.0165872
946.705,0.0149962
947.907,0.015626
949.109,0.0169266
950.311,0.0144118
951.512,0.0142392
952.714,0.017913
953.916,0.0126655
955.118,0.0197501
956.32,0.0141343
957.521,0.0133849
958.723,0.0149046
959.925,0.0157025
961.127,0.0139283
962.329,0.0124856
963.531,0.00765176
964.732,0.0125722
965.934,0.0121806
967.136,0.00695657
968.338,0.0100194
969.54,0.00741688
970.741,0.0197451
971.943,0.0183354
973.145,0.0102315
974.347,0.00590364
975.549,0.00587616
976.751,0.00762267
977.952,0.0168783
979.154,0.011627
980.356,0.00955803
981.558,0.0100938
982.76,0.0114972
983.961,0.0135121
985.163,0.0158406
986.365,0.0103667
987.567,0.00996402
988.769,0.0123597
989.971,0.0128096
991.172,0.00843085
992.374,0.0173742
993.576,0.0207661
994.778,0.0134432
995.98,0.0135422
997.181,0.0188708
998.383,0.0165895
999.585,0.0111226
1000.79,0.0198329
1001.99,0.0175276
1003.19,0.0165842
1004.39,0.018335
1005.59,0.021214
1006.8,0.0192504
1008,0.0264656
1009.2,0.0211823
1010.4,0.0230512
1011.6,0.0243119
1012.81,0.0218602
1014.01,0.0198931
1015.21,0.0255392
1016.41,0.0269096
1017.61,0.0208376
1018.81,0.0221543
1020.02,0.0240265
1021.22,0.020693
1022.42,0.0271944
1023.62,0.0345105
1024.82,0.0278487
1026.03,0.0271331
1027.23,0.0254693
1028.43,0.0245958
1029.63,0.0347677
1030.83,0.0375957
1032.03,0.0372283
1033.24,0.0322978
1034.44,0.0316843
1035.64,0.0311864
1036.84,0.0294679
1038.04,0.0329351
1039.25,0.0273499
1040.45,0.0239054
1041.65,0.0304111
1042.85,0.0330986
1044.05,0.031144
1045.25,0.0290525
1046.46,0.0390104
1047.66,0.0299396
1048.86,0.0310362
1050.06,0.0329543
1051.26,0.0376676
1052.47,0.0396206
1053.67,0.0304269
1054.87,0.0261066
1056.07,0.0246211
1057.27,0.0203647
1058.47,0.0260251
1059.68,0.0284639
1060.88,0.0256775
1062.08,0.0269252
1063.28,0.0154596
1064.48,0.0210532
1065.69,0.024654
1066.89,0.0167247
1068.09,0.0148445
1069.29,0.0214866
1070.49,0.0120362
1071.69,0.0143496
1072.9,0.0244817
1074.1,0.0186236
1075.3,0.017517
1076.5,0.0177037
1077.7,0.0177349
1078.91,0.0266532
1080.11,0.0275854
1081.31,0.0230157
1082.51,0.0150057
1083.71,0.0154381
1084.91,0.016967
1086.12,0.0176741
1087.32,0.0231393
1088.52,0.0218855
1089.72,0.0259537
1090.92,0.0268328
1092.13,0.0241665
1093.33,0.0196618
1094.53,0.0175174
1095.73,0.0165175
1096.93,0.0192039
1098.13,0.0223226
1099.34,0.0168376
1100.54,0.0164385
1101.74,0.0195916
1102.94,0.0207188
1104.14,0.0193836
1105.35,0.0262076
1106.55,0.0205828
1107.75,0.0218711
1108.95,0.0156761
1110.15,0.0158349
1111.35,0.0187152
1112.56,0.00913765
1113.76,0.0166972
1114.96,0.0227819
1116.16,0.0107396
1117.36,0.0142017
1118.57,0.0149866
1119.77,0.0163638
1120.97,0.0253346
1122.17,0.0241755
1123.37,0.0230833
1124.57,0.0169131
1125.78,0.0206117
1126.98,0.0159894
1128.18,0.0113769
1129.38,0.0114649
1130.58,0.00820717
1131.79,0.0230568
1132.99,0.0141525
1134.19,0.0142386
1135.39,0.0130086
1136.59,0.0132645
1137.79,0.0143753
1139,0.0151565
1140.2,0.0306915
1141.4,0.0203897
1142.6,0.0132714
1143.8,0.017245
1145.01,0.0160817
1146.21,0.0159701
1147.41,0.0180904
1148.61,0.00644404
1149.81,0.0105718
1151.01,0.0173139
1152.22,0.0227081
1153.42,0.019669
1154.62,0.0170564
1155.82,0.0181345
1157.02,0.0205334
1158.23,0.0121395
1159.43,0.012886
1160.63,0.0174525
1161.83,0.0209749
1163.03,0.0228382
1164.23,0.0212862
1165.44,0.0199235
1166.64,0.0249367
1167.84,0.0224379
1169.04,0.0133561
1170.24,0.0139514
1171.45,0.0189271
1172.65,0.0198116
1173.85,0.0196907
1175.05,0.0217317
1176.25,0.0244379
1177.45,0.0249123
1178.66,0.01763
1179.86,0.0151503
1181.06,0.0173624
1182.26,0.0221181
1183.46,0.0235439
1184.67,0.0197181
1185.87,0.00649098
1187.07,0.0221125
1188.27,0.0159758
1189.47,0.0139012
1190.67,0.0106793
1191.88,0.0160802
1193.08,0.0202269
1194.28,0.0185056
1195.48,0.0217558
1196.68,0.0137703
1197.89,0.0168664
1199.09,0.00940081
1200.29,0.0141035
1201.49,0.0175911
1202.69,0.0150016
1203.89,0.0105764
1205.1,0.0140249
1206.3,0.0160925
1207.5,0.0150419
1208.7,0.0148234
1209.9,0.0171297
1211.11,0.0140196
1212.31,0.0153102
1213.51,0.0194591
1214.71,0.0140043
1215.91,0.0170716
1217.11,0.0143512
1218.32,0.0214034
1219.52,0.019282
1220.72,0.0152507
1221.92,0.0159817
1223.12,0.0180668
1224.33,0.0181745
1225.53,0.0179263
1226.73,0.00438349
1227.93,0.0239916
1229.13,0.0238205
1230.33,0.0213801
1231.54,0.0202544
1232.74,0.0187237
1233.94,0.0147446
1235.14,0.0132499
1236.34,0.0231344
1237.54,0.0246661
1238.75,0.022519
1239.95,0.0143725
1241.15,0.023174
1242.35,0.0273606
1243.55,0.0276412
1244.76,0.0325266
1245.96,0.0319528
1247.16,0.0335448
1248.36,0.0312993
1249.56,0.0302952
1250.76,0.0332401
1251.97,0.0380498
1253.17,0.0399684
1254.37,0.042957
1255.57,0.0524689
1256.77,0.0568031
1257.98,0.0606671
1259.18,0.0645483
1260.38,0.0651896
1261.58,0.0737382
1262.78,0.0769078
1263.98,0.0798855
1265.19,0.0816694
1266.39,0.0741301
1267.59,0.0772246
1268.79,0.0632903
1269.99,0.0749372
1271.2,0.0622415
1272.4,0.0622614
1273.6,0.0619857
1274.8,0.0631999
1276,0.0637319
1277.2,0.0556305
1278.41,0.0586107
1279.61,0.0639584
1280.81,0.0635727
1282.01,0.0622749
1283.21,0.057543
1284.42,0.0567025
1285.62,0.059027
1286.82,0.0649931
1288.02,0.069396
1289.22,0.0689794
1290.42,0.0711326
1291.63,0.0518627
1292.83,0.0668027
1294.03,0.0658569
1295.23,0.0689273
1296.43,0.0701583
1297.64,0.0671734
1298.84,0.0664915
1300.04,0.0712422
1301.24,0.0728979
1302.44,0.0749897
1303.64,0.0817706
1304.85,0.0794679
1306.05,0.0741626
1307.25,0.0754524
1308.45,0.0773984
1309.65,0.0764521
1310.86,0.0728599
1312.06,0.0722141
1313.26,0.081093
1314.46,0.0818674
1315.66,0.0907745
1316.86,0.0884848
1318.07,0.0832097
1319.27,0.081868
1320.47,0.0795635
1321.67,0.0771638
1322.87,0.081858
1324.08,0.0743996
1325.28,0.0835105
1326.48,0.0836246
1327.68,0.0759655
1328.88,0.0766529
1330.08,0.0779414
1331.29,0.0787038
1332.49,0.0787502
1333.69,0.076978
1334.89,0.0750899
1336.09,0.078941
1337.3,0.0748051
1338.5,0.0721064
1339.7,0.0735148
1340.9,0.0655842
1342.1,0.0712151
1343.3,0.0697617
1344.51,0.0658959
1345.71,0.0696523
1346.91,0.0682214
1348.11,0.0552382
1349.31,0.0641375
1350.52,0.0733208
1351.72,0.0674879
1352.92,0.0700881
1354.12,0.0626098
1355.32,0.0602899
1356.52,0.0611556
1357.73,0.0587503
1358.93,0.0529811
1360.13,0.0502558
1361.33,0.0566538
1362.53,0.0539685
1363.74,0.0503476
1364.94,0.0549915
1366.14,0.0511629
1367.34,0.0462358
1368.54,0.0474835
1369.74,0.0469491
1370.95,0.0463096
1372.15,0.0609343
1373.35,0.0549675
1374.55,0.0477735
1375.75,0.0553744
1376.96,0.0411088
1378.16,0.042717
1379.36,0.0575768
1380.56,0.057005
1381.76,0.0512735
1382.96,0.0548872
1384.17,0.0636504
1385.37,0.0619393
1386.57,0.0569074
1387.77,0.0569094
1388.97,0.0697706
1390.18,0.0644421
1391.38,0.0697276
1392.58,0.0742228
1393.78,0.0684875
1394.98,0.0678774
1396.18,0.0799534
1397.39,0.0924939
1398.59,0.10137
1399.79,0.109175
1400.99,0.117898
1402.19,0.126253
1403.4,0.129355
1404.6,0.127475
1405.8,0.138677
1407,0.139599
1408.2,0.146624
1409.4,0.1581
1410.61,0.164502
1411.81,0.168319
1413.01,0.161365
1414.21,0.164605
1415.41,0.164951
1416.62,0.158795
1417.82,0.152396
1419.02,0.139847
1420.22,0.12997
1421.42,0.119621
1422.62,0.115676
1423.83,0.10951
1425.03,0.0909343
1426.23,0.0825812
1427.43,0.0849452
1428.63,0.0711072
1429.84,0.0648294
1431.04,0.060135
1432.24,0.0509239
1433.44,0.047559
1434.64,0.0484937
1435.84,0.0480521
1437.05,0.0451914
1438.25,0.0396492
1439.45,0.03681
1440.65,0.0366603
1441.85,0.0331778
1443.06,0.030664
1444.26,0.0276702
1445.46,0.0329327
1446.66,0.0324346
1447.86,0.0358566
1449.06,0.030113
1450.27,0.0211248
1451.47,0.0242052
1452.67,0.0259056
1453.87,0.0277784
1455.07,0.0306693
1456.28,0.0236232
1457.48,0.0279712
1458.68,0.0170321
1459.88,0.0215455
1461.08,0.0153303
1462.28,0.017274
1463.49,0.0139558
1464.69,0.013371
1465.89,0.0116896
1467.09,0.0132855
1468.29,0.0171955
1469.5,0.0176491
1470.7,0.0178534
1471.9,0.0197478
1473.1,0.0129808
1474.3,0.0135308
1475.5,0.0305416
1476.71,0.0223862
1477.91,0.0141059
1479.11,0.0198322
1480.31,0.0267387
1481.51,0.0251707
1482.72,0.0295093
1483.92,0.0312345
1485.12,0.0310557
1486.32,0.0331635
1487.52,0.0350306
1488.72,0.0335558
1489.93,0.0236475
1491.13,0.0367807
1492.33,0.0215932
1493.53,0.017234
1494.73,0.0273408
1495.94,0.022322
1497.14,0.0181017
1498.34,0.0170875
1499.54,0.0223382
1500.74,0.0233751
1501.94,0.0225836
1503.15,0.0220336
1504.35,0.0210042
1505.55,0.0250133
1506.75,0.0266743
1507.95,0.0183425
1509.16,0.0201947
1510.36,0.0234789
1511.56,0.018723
1512.76,0.0257448
1513.96,0.0209733
1515.16,0.0133596
1516.37,0.0196618
1517.57,0.0155914
1518.77,0.014972
1519.97,0.0166616
1521.17,0.0195728
1522.38,0.0250943
1523.58,0.0207701
1524.78,0.0185991
1525.98,0.0145067
1527.18,0.0245493
1528.38,0.0175432
1529.59,0.0127264
1530.79,0.0112133
1531.99,0.0163892
1533.19,0.0192601
1534.39,0.0116448
1535.6,0.0112684
1536.8,0.0106005
1538,0.0100053
1539.2,0.0129805
1540.4,0.0186767
1541.6,0.0199631
1542.81,0.0187845
1544.01,0.0166478
1545.21,0.0228845
1546.41,0.0167264
1547.61,0.0225216
1548.82,0.0130704
1550.02,0.0165633
1551.22,0.0236874
1552.42,0.0182418
1553.62,0.0214807
1554.82,0.0227012
1556.03,0.0203177
1557.23,0.0152482
1558.43,0.0127024
1559.63,0.0131638
1560.83,0.0168916
1562.04,0.017524
1563.24,0.0122234
1564.44,0.0189822
1565.64,0.017079
1566.84,0.0278417
1568.04,0.0123124
1569.25,0.0223808
1570.45,0.0142093
1571.65,0.0112236
1572.85,0.00840902
1574.05,0.0221703
1575.26,0.0181746
1576.46,0.021255
1577.66,0.018601
1578.86,0.0204275
1580.06,0.0254914
1581.26,0.0218794
1582.47,0.0161939
1583.67,0.018294
1584.87,0.0186452
1586.07,0.0154777
1587.27,0.0133838
1588.48,0.0187667
1589.68,0.0251503
1590.88,0.0124285
1592.08,0.0195521
1593.28,0.0208279
1594.48,0.0130999
1595.69,0.0110763
1596.89,0.0138757
1598.09,0.0117997
1599.29,0.0122385
1600.49,0.0125286
1601.7,0.016927
1602.9,0.0162068
1604.1,0.0140151
1605.3,0.0126811
1606.5,0.00966804
1607.7,0.018462
1608.91,0.0197462
1610.11,0.0218723
1611.31,0.0221822
1612.51,0.00363556
1613.71,0.0154465
1614.92,0.0147852
1616.12,0.0218656
1617.32,0.0151094
1618.52,0.0157997
1619.72,0.0146449
1620.92,0.0173798
1622.13,0.024122
1623.33,0.021184
1624.53,0.0130102
1625.73,0.0119839
1626.93,0.0147044
1628.14,0.0107613
1629.34,0.00679429
1630.54,0.0129899
1631.74,0.0172271
1632.94,0.0152224
1634.14,0.0144913
1635.35,0.0152515
1636.55,0.0126436
1637.75,0.0107919
1638.95,0.0150491
1640.15,0.0147093
1641.36,0.0175414
1642.56,0.0197184
1643.76,0.00810826
1644.96,0.023479
1646.16,0.0231337
1647.36,0.0237396
1648.57,0.0190748
1649.77,0.0121668
1650.97,0.023064
1652.17,0.0201339
1653.37,0.0179392
1654.58,0.0214485
1655.78,0.0229462
1656.98,0.0199288
1658.18,0.0217234
1659.38,0.0236622
1660.58,0.0261031
1661.79,0.031385
1662.99,0.022293
1664.19,0.0222953
1665.39,0.0237056
1666.59,0.0250554
1667.8,0.022391
1669,0.0228335
1670.2,0.0283655
1671.4,0.0167023
1672.6,0.0200421
1673.8,0.0232216
1675.01,0.0199149
1676.21,0.0100539
1677.41,0.0161079
1678.61,0.0120668
1679.81,0.0232425
1681.02,0.0288768
1682.22,0.0176968
1683.42,0.0231286
1684.62,0.0184802
1685.82,0.0267017
1687.02,0.0231992
1688.23,0.0182751
1689.43,0.0197457
1690.63,0.0201058
1691.83,0.0163445
1693.03,0.0198516
1694.24,0.0213657
1695.44,0.0130635
1696.64,0.0148413
1697.84,0.0167918
1699.04,0.0133207
1700.24,0.0207687
1701.45,0.0177287
1702.65,0.0215077
1703.85,0.0211849
1705.05,0.00894652
1706.25,0.0176373
1707.46,0.0195817
1708.66,0.016911
1709.86,0.0147656
1711.06,0.022736
1712.26,0.0225088
1713.46,0.0158492
1714.67,0.0186827
1715.87,0.015127
1717.07,0.014354
1718.27,0.0110979
1719.47,0.0186149
1720.68,0.0168754
1721.88,0.0186777
1723.08,0.0165807
1724.28,0.0115387
1725.48,0.0151081
1726.68,0.0161268
1727.89,0.0187698
1729.09,0.0173529
1730.29,0.0177365
1731.49,0.0157015
1732.69,0.0108295
1733.9,0.0187055
1735.1,0.0231166
1736.3,0.0213623
1737.5,0.0199764
1738.7,0.0175801
1739.9,0.0219412
1741.11,0.0238548
1742.31,0.0211596
1743.51,0.0186664
1744.71,0.015332
1745.91,0.0180516
1747.12,0.0255785
1748.32,0.0184084
1749.52,0.0249024
1750.72,0.0200851
1751.92,0.0164536
1753.12,0.0159479
1754.33,0.0211774
1755.53,0.0192478
1756.73,0.0139069
1757.93,0.0220618
1759.13,0.0212171
1760.34,0.0193722
1761.54,0.0178723
1762.74,0.0232154
1763.94,0.0200513
1765.14,0.0215151
1766.34,0.0196388
1767.55,0.0172827
1768.75,0.0164472
1769.95,0.0235666
1771.15,0.0164753
1772.35,0.00938638
1773.56,0.0218887
1774.76,0.0145617
1775.96,0.0225195
1777.16,0.0257791
1778.36,0.0192205
1779.56,0.019726
1780.77,0.0222073
1781.97,0.0225725
1783.17,0.0226109
1784.37,0.0232118
1785.57,0.0224672
1786.78,0.0238405
1787.98,0.0172021
1789.18,0.0147057
1790.38,0.0154891
1791.58,0.0189848
1792.78,0.0257808
1793.99,0.0173884
1795.19,0.0148957
1796.39,0.0145078
1797.59,0.0118472
1798.79,0.0170448
1800,0.0139524
1801.2,0.0144662
1802.4,0.0165209
1803.6,0.0116185
1804.8,0.0136614
1806,0.0174085
1807.21,0.0174454
1808.41,0.0138285
1809.61,0.0166073
1810.81,0.0198743
1812.01,0.0178052
1813.22,0.0182146
1814.42,0.0189634
1815.62,0.0200224
1816.82,0.0175975
1818.02,0.0160422
1819.22,0.0173632
1820.43,0.0169315
1821.63,0.0215079
1822.83,0.0272381
1824.03,0.0267961
1825.23,0.0267957
1826.44,0.0231773
1827.64,0.0152013
1828.84,0.0156713
1830.04,0.0193
1831.24,0.0187084
1832.44,0.0133875
1833.65,0.0135935
1834.85,0.013465
1836.05,0.0135762
1837.25,0.0161199
1838.45,0.016757
1839.66,0.0146014
1840.86,0.0127336
1842.06,0.0128638
1843.26,0.0145865
1844.46,0.0170334
1845.66,0.0160966