File: FTIR_data/HDPE.csv
449.815,0.953128
452.225,0.948262
454.636,0.931811
457.047,0.932119
459.457,0.94855
461.868,0.959074
464.278,0.950786
466.689,0.935919
469.1,0.940109
471.51,0.94558
473.921,0.949939
476.331,0.953054
478.742,0.941685
481.152,0.945367
483.563,0.950071
485.974,0.938088
488.384,0.931647
490.795,0.958337
493.205,0.958991
495.616,0.946058
498.027,0.927081
500.437,0.931305
502.848,0.938298
505.258,0.951255
507.669,0.950995
510.079,0.94057
512.49,0.943642
514.901,0.949919
517.311,0.956494
519.722,0.955118
522.132,0.950126
524.543,0.95778
526.954,0.950621
529.364,0.948771
531.775,0.939272
534.185,0.944097
536.596,0.950355
539.006,0.951486
541.417,0.94239
543.828,0.94169
546.238,0.937264
548.649,0.936849
551.059,0.943551
553.47,0.943912
555.881,0.938399
558.291,0.941838
560.702,0.951015
563.112,0.944521
565.523,0.943105
567.933,0.945115
570.344,0.946672
572.755,0.93924
575.165,0.943388
577.576,0.94269
579.986,0.94536
582.397,0.947735
584.808,0.950879
587.218,0.945984
589.629,0.944157
592.039,0.942794
594.45,0.94597
596.86,0.94687
599.271,0.941021
601.682,0.937471
604.092,0.937744
606.503,0.935573
608.913,0.931782
611.324,0.92996
613.735,0.925654
616.145,0.925145
618.556,0.929745
620.966,0.934612
623.377,0.936277
625.787,0.934804
628.198,0.934595
630.609,0.938465
633.019,0.939498
635.43,0.937514
637.84,0.93302
640.251,0.927681
642.662,0.928114
645.072,0.92752
647.483,0.926339
649.893,0.927637
652.304,0.932545
654.714,0.933185
657.125,0.932874
659.536,0.933655
661.946,0.93612
664.357,0.935221
666.767,0.933195
669.178,0.931636
671.589,0.920306
673.999,0.925222
676.41,0.931541
678.82,0.930854
681.231,0.928331
683.641,0.924824
686.052,0.928624
688.463,0.925931
690.873,0.923954
693.284,0.92231
695.694,0.918305
698.105,0.916325
700.516,0.912524
702.926,0.906008
705.337,0.900437
707.747,0.891215
710.158,0.874534
712.568,0.848322
714.979,0.796171
717.39,0.689076
719.8,0.528763
722.211,0.458744
724.621,0.548915
727.032,0.695946
729.443,0.766352
731.853,0.764629
734.264,0.743223
736.674,0.818778
739.085,0.896655
741.495,0.917768
743.906,0.925539
746.317,0.933926
748.727,0.937561
751.138,0.93589
753.548,0.937122
755.959,0.93752
758.37,0.93794
760.78,0.938965
763.191,0.939765
765.601,0.941515
768.012,0.940591
770.422,0.940113
772.833,0.940624
775.244,0.941058
777.654,0.939824
780.065,0.940844
782.475,0.942535
784.886,0.942884
787.297,0.943664
789.707,0.942211
792.118,0.941667
794.528,0.942589
796.939,0.94226
799.349,0.940624
801.76,0.941333
804.171,0.941194
806.581,0.943503
808.992,0.942326
811.402,0.942012
813.813,0.941725
816.224,0.941947
818.634,0.942263
821.045,0.943936
823.455,0.94474
825.866,0.94357
828.276,0.943022
830.687,0.944187
833.098,0.943881
835.508,0.944316
837.919,0.944405
840.329,0.944584
842.74,0.945808
845.151,0.945005
847.561,0.943277
849.972,0.943626
852.382,0.944604
854.793,0.944531
857.203,0.944278
859.614,0.943374
862.025,0.944153
864.435,0.943768
866.846,0.945037
869.256,0.945942
871.667,0.943792
874.078,0.944226
876.488,0.944531
878.899,0.944329
881.309,0.943826
883.72,0.945211
886.13,0.9447
888.541,0.94384
890.952,0.943336
893.362,0.943001
895.773,0.942933
898.183,0.94446
900.594,0.944349
903.005,0.944581
905.415,0.943414
907.826,0.941289
910.236,0.937869
912.647,0.933231
915.057,0.934221
917.468,0.940017
919.879,0.942545
922.289,0.943909
924.7,0.944814
927.11,0.944393
929.521,0.944583
931.932,0.944622
934.342,0.944606
936.753,0.943697
939.163,0.944559
941.574,0.9448
943.984,0.943291
946.395,0.944418
948.806,0.94562
951.216,0.945328
953.627,0.944305
956.037,0.945177
958.448,0.945732
960.859,0.944741
963.269,0.944767
965.68,0.944393
968.09,0.942905
970.501,0.943384
972.911,0.944153
975.322,0.943777
977.733,0.942695
980.143,0.942225
982.554,0.943834
984.964,0.943707
987.375,0.943392
989.786,0.941992
992.196,0.942394
994.607,0.942965
997.017,0.942779
999.428,0.943157
1001.84,0.944453
1004.25,0.944783
1006.66,0.944485
1009.07,0.943909
1011.48,0.942613
1013.89,0.942669
1016.3,0.941982
1018.71,0.940721
1021.12,0.93932
1023.53,0.939932
1025.94,0.939314
1028.35,0.938892
1030.77,0.940018
1033.18,0.9416
1035.59,0.941141
1038,0.941659
1040.41,0.941833
1042.82,0.941385
1045.23,0.941639
1047.64,0.941356
1050.05,0.941285
1052.46,0.941406
1054.87,0.940954
1057.28,0.940785
1059.69,0.941233
1062.1,0.940818
1064.51,0.939417
1066.92,0.937348
1069.33,0.935241
1071.75,0.934345
1074.16,0.931238
1076.57,0.926942
1078.98,0.921579
1081.39,0.917337
1083.8,0.915265
1086.21,0.91474
1088.62,0.915137
1091.03,0.918154
1093.44,0.921614
1095.85,0.924823
1098.26,0.92618
1100.67,0.927812
1103.08,0.929598
1105.49,0.930856
1107.9,0.930447
1110.31,0.928659
1112.73,0.927749
1115.14,0.926272
1117.55,0.923542
1119.96,0.922453
1122.37,0.921691
1124.78,0.921906
1127.19,0.923144
1129.6,0.924726
1132.01,0.926683
1134.42,0.929162
1136.83,0.931413
1139.24,0.93285
1141.65,0.93508
1144.06,0.936168
1146.47,0.936494
1148.88,0.937911
1151.29,0.938492
1153.71,0.939561
1156.12,0.941184
1158.53,0.941357
1160.94,0.942065
1163.35,0.941136
1165.76,0.940623
1168.17,0.940029
1170.58,0.940423
1172.99,0.93992
1175.4,0.938765
1177.81,0.938259
1180.22,0.936392
1182.63,0.934793
1185.04,0.934396
1187.45,0.933861
1189.86,0.932353
1192.27,0.930583
1194.69,0.92875
1197.1,0.928124
1199.51,0.927246
1201.92,0.926289
1204.33,0.925072
1206.74,0.925549
1209.15,0.926712
1211.56,0.92964
1213.97,0.931858
1216.38,0.934295
1218.79,0.936621
1221.2,0.938967
1223.61,0.94066
1226.02,0.941747
1228.43,0.942793
1230.84,0.944023
1233.25,0.945648
1235.67,0.945991
1238.08,0.9456
1240.49,0.945778
1242.9,0.94599
1245.31,0.945676
1247.72,0.946371
1250.13,0.945465
1252.54,0.945189
1254.95,0.9452
1257.36,0.943612
1259.77,0.942416
1262.18,0.943406
1264.59,0.94302
1267,0.942549
1269.41,0.942281
1271.82,0.941891
1274.23,0.941837
1276.64,0.941685
1279.06,0.941844
1281.47,0.941872
1283.88,0.942246
1286.29,0.941695
1288.7,0.941175
1291.11,0.940417
1293.52,0.939136
1295.93,0.938808
1298.34,0.93867
1300.75,0.936976
1303.16,0.935953
1305.57,0.935489
1307.98,0.934089
1310.39,0.934118
1312.8,0.93528
1315.21,0.936359
1317.62,0.936952
1320.04,0.937398
1322.45,0.938032
1324.86,0.938774
1327.27,0.939787
1329.68,0.941053
1332.09,0.941245
1334.5,0.942744
1336.91,0.943235
1339.32,0.942194
1341.73,0.94122
1344.14,0.940538
1346.55,0.939587
1348.96,0.938276
1351.37,0.936458
1353.78,0.935314
1356.19,0.933176
1358.6,0.932124
1361.02,0.932127
1363.43,0.931995
1365.84,0.931784
1368.25,0.930903
1370.66,0.929275
1373.07,0.9276
1375.48,0.925537
1377.89,0.925137
1380.3,0.928405
1382.71,0.931174
1385.12,0.931703
1387.53,0.93305
1389.94,0.938562
1392.35,0.94263
1394.76,0.944388
1397.17,0.944212
1399.58,0.941769
1402,0.942676
1404.41,0.941886
1406.82,0.94095
1409.23,0.942167
1411.64,0.942908
1414.05,0.942717
1416.46,0.940591
1418.87,0.937759
1421.28,0.937671
1423.69,0.935081
1426.1,0.931968
1428.51,0.932304
1430.92,0.931363
1433.33,0.927787
1435.74,0.920704
1438.15,0.915121
1440.56,0.909441
1442.98,0.90362
1445.39,0.898238
1447.8,0.893534
1450.21,0.88953
1452.62,0.884599
1455.03,0.878635
1457.44,0.870687
1459.85,0.856077
1462.26,0.833329
1464.67,0.808353
1467.08,0.748721
1469.49,0.656381
1471.9,0.610127
1474.31,0.626337
1476.72,0.603402
1479.13,0.547963
1481.54,0.572443
1483.96,0.76753
1486.37,0.889893
1488.78,0.923373
1491.19,0.936258
1493.6,0.943827
1496.01,0.946639
1498.42,0.946835
1500.83,0.947633
1503.24,0.946064
1505.65,0.946669
1508.06,0.949256
1510.47,0.949732
1512.88,0.951253
1515.29,0.952833
1517.7,0.95398
1520.11,0.952329
1522.52,0.951548
1524.94,0.954999
1527.35,0.953496
1529.76,0.9501
1532.17,0.952028
1534.58,0.954195
1536.99,0.950722
1539.4,0.947573
1541.81,0.949532
1544.22,0.953579
1546.63,0.950033
1549.04,0.945775
1551.45,0.950585
1553.86,0.952108
1556.27,0.951877
1558.68,0.949244
1561.09,0.9516
1563.5,0.951225
1565.91,0.947018
1568.33,0.94926
1570.74,0.951824
1573.15,0.952584
1575.56,0.952048
1577.97,0.95085
1580.38,0.95005
1582.79,0.948608
1585.2,0.949568
1587.61,0.951369
1590.02,0.952079
1592.43,0.953665
1594.84,0.953239
1597.25,0.951649
1599.66,0.949723
1602.07,0.949735
1604.48,0.952482
1606.89,0.954194
1609.31,0.955575
1611.72,0.955064
1614.13,0.954916
1616.54,0.952083
1618.95,0.949907
1621.36,0.953508
1623.77,0.954891
1626.18,0.955136
1628.59,0.956266
1631,0.954902
1633.41,0.953704
1635.82,0.952306
1638.23,0.952025
1640.64,0.954033
1643.05,0.952093
1645.46,0.953695
1647.87,0.95058
1650.29,0.951182
1652.7,0.951804
1655.11,0.951095
1657.52,0.950764
1659.93,0.950522
1662.34,0.952358
1664.75,0.952749
1667.16,0.951659
1669.57,0.953373
1671.98,0.95605
1674.39,0.95656
1676.8,0.954397
1679.21,0.951495
1681.62,0.954985
1684.03,0.954966
1686.44,0.952715
1688.85,0.953653
1691.27,0.955365
1693.68,0.957369
1696.09,0.951737
1698.5,0.95267
1700.91,0.957108
1703.32,0.95633
1705.73,0.954394
1708.14,0.954537
1710.55,0.956198
1712.96,0.954826
1715.37,0.953397
1717.78,0.955174
1720.19,0.956367
1722.6,0.955343
1725.01,0.954837
1727.42,0.955322
1729.83,0.957277
1732.25,0.957927
1734.66,0.956136
1737.07,0.957504
1739.48,0.95798
1741.89,0.957772
1744.3,0.955607
1746.71,0.958092
1749.12,0.960851
1751.53,0.961246
1753.94,0.960256
1756.35,0.958894
1758.76,0.956231
1761.17,0.955883
1763.58,0.955789
1765.99,0.956557
1768.4,0.958454
1770.81,0.958609
1773.23,0.957972
1775.64,0.956984
1778.05,0.955923
1780.46,0.955537
1782.87,0.955289
1785.28,0.957921
1787.69,0.958966
1790.1,0.960038
1792.51,0.95783
1794.92,0.95626
1797.33,0.958079
1799.74,0.95931
1802.15,0.95894
1804.56,0.960033
1806.97,0.960818
1809.38,0.960727
1811.79,0.959741
1814.21,0.957757
1816.62,0.958982
1819.03,0.959055
1821.44,0.960327
1823.85,0.959493
1826.26,0.958746
1828.67,0.961001
1831.08,0.960604
1833.49,0.958587
1835.9,0.956575
1838.31,0.958468
1840.72,0.959892
1843.13,0.958417
1845.54,0.959726
1847.95,0.964206
1850.36,0.96321
1852.77,0.959289
1855.18,0.95844
1857.6,0.959157
1860.01,0.958581
1862.42,0.958837
1864.83,0.95805
1867.24,0.95998
1869.65,0.960846
1872.06,0.958806
1874.47,0.959053
1876.88,0.959584
1879.29,0.957376
1881.7,0.958045
1884.11,0.960028
1886.52,0.960764
1888.93,0.957963
1891.34,0.956711
1893.75,0.959505
1896.16,0.961791
1898.58,0.961525
1900.99,0.960838
1903.4,0.957369
1905.81,0.956083
1908.22,0.955135
1910.63,0.953825
1913.04,0.953916
1915.45,0.958723
1917.86,0.961079
1920.27,0.957878
1922.68,0.956462
1925.09,0.955579
1927.5,0.955649
1929.91,0.957877
1932.32,0.960003
1934.73,0.957684
1937.14,0.956439
1939.56,0.956162
1941.97,0.954616
1944.38,0.957326
1946.79,0.959891
1949.2,0.959174
1951.61,0.957891
1954.02,0.957351
1956.43,0.9557
1958.84,0.953094
1961.25,0.957935
1963.66,0.958844
1966.07,0.957251
1968.48,0.95291
1970.89,0.949037
1973.3,0.950368
1975.71,0.952441
1978.12,0.954901
1980.54,0.954979
1982.95,0.946609
1985.36,0.940729
1987.77,0.943414
1990.18,0.946416
1992.59,0.948078
1995,0.944744
1997.41,0.947116
1999.82,0.950872
2002.23,0.952254
2004.64,0.954481
2007.05,0.95443
2009.46,0.962085
2011.87,0.95715
2014.28,0.950963
2016.69,0.950902
2019.1,0.942098
2021.52,0.951471
2023.93,0.956587
2026.34,0.95416
2028.75,0.953032
2031.16,0.943468
2033.57,0.941207
2035.98,0.942295
2038.39,0.942894
2040.8,0.94702
2043.21,0.955626
2045.62,0.955474
2048.03,0.954804
2050.44,0.950469
2052.85,0.947578
2055.26,0.946749
2057.67,0.940577
2060.08,0.946047
2062.5,0.959618
2064.91,0.961495
2067.32,0.956821
2069.73,0.953154
2072.14,0.95406
2074.55,0.952249
2076.96,0.951854
2079.37,0.952621
2081.78,0.955849
2084.19,0.955267
2086.6,0.956656
2089.01,0.959495
2091.42,0.95939
2093.83,0.959339
2096.24,0.958786
2098.65,0.958355
2101.06,0.958049
2103.48,0.958837
2105.89,0.959633
2108.3,0.95657
2110.71,0.957916
2113.12,0.959983
2115.53,0.957548
2117.94,0.959257
2120.35,0.961932
2122.76,0.962345
2125.17,0.961415
2127.58,0.9653
2129.99,0.966129
2132.4,0.964032
2134.81,0.964785
2137.22,0.967388
2139.63,0.968542
2142.04,0.969491
2144.45,0.970394
2146.87,0.965369
2149.28,0.965918
2151.69,0.976393
2154.1,0.975034
2156.51,0.970017
2158.92,0.97534
2161.33,0.972957
2163.74,0.973773
2166.15,0.983967
2168.56,0.99468
2170.97,0.999974
2173.38,0.99713
2175.79,0.99142
2178.2,0.978964
2180.61,0.982771
2183.02,0.983674
2185.43,0.976978
2187.85,0.973217
2190.26,0.972598
2192.67,0.973456
2195.08,0.962354
2197.49,0.960185
2199.9,0.965055
2202.31,0.965155
2204.72,0.967745
2207.13,0.97159
2209.54,0.965211
2211.95,0.966158
2214.36,0.972548
2216.77,0.980785
2219.18,0.98462
2221.59,0.979768
2224,0.971062
2226.41,0.969655
2228.83,0.972588
2231.24,0.97052
2233.65,0.967697
2236.06,0.96759
2238.47,0.969983
2240.88,0.970378
2243.29,0.972116
2245.7,0.969351
2248.11,0.965291
2250.52,0.96751
2252.93,0.967911
2255.34,0.965536
2257.75,0.967978
2260.16,0.964668
2262.57,0.963712
2264.98,0.96587
2267.39,0.964664
2269.81,0.964593
2272.22,0.966122
2274.63,0.963944
2277.04,0.96138
2279.45,0.959981
2281.86,0.960329
2284.27,0.957428
2286.68,0.955069
2289.09,0.954981
2291.5,0.956701
2293.91,0.959744
2296.32,0.960592
2298.73,0.958398
2301.14,0.958512
2303.55,0.957747
2305.96,0.957743
2308.37,0.957221
2310.79,0.958549
2313.2,0.95777
2315.61,0.95746
2318.02,0.955417
2320.43,0.953746
2322.84,0.954363
2325.25,0.951444
2327.66,0.947919
2330.07,0.944725
2332.48,0.944406
2334.89,0.943876
2337.3,0.940253
2339.71,0.93836
2342.12,0.937747
2344.53,0.939399
2346.94,0.938629
2349.35,0.939656
2351.77,0.940212
2354.18,0.938377
2356.59,0.936655
2359,0.937238
2361.41,0.940826
2363.82,0.936315
2366.23,0.927505
2368.64,0.922028
2371.05,0.918599
2373.46,0.919478
2375.87,0.919916
2378.28,0.921596
2380.69,0.924491
2383.1,0.931089
2385.51,0.938712
2387.92,0.945714
2390.33,0.949434
2392.75,0.952332
2395.16,0.958475
2397.57,0.961447
2399.98,0.960611
2402.39,0.961013
2404.8,0.961932
2407.21,0.960728
2409.62,0.960135
2412.03,0.963365
2414.44,0.96551
2416.85,0.964857
2419.26,0.966408
2421.67,0.968137
2424.08,0.967966
2426.49,0.968382
2428.9,0.967911
2431.31,0.966846
2433.72,0.968289
2436.14,0.968067
2438.55,0.968051
2440.96,0.96828
2443.37,0.966855
2445.78,0.966255
2448.19,0.966871
2450.6,0.966659
2453.01,0.967053
2455.42,0.967035
2457.83,0.965233
2460.24,0.964883
2462.65,0.965498
2465.06,0.9673
2467.47,0.968942
2469.88,0.969886
2472.29,0.968891
2474.7,0.968621
2477.12,0.966976
2479.53,0.966998
2481.94,0.967464
2484.35,0.96636
2486.76,0.965587
2489.17,0.966366
2491.58,0.967477
2493.99,0.966634
2496.4,0.966114
2498.81,0.965529
2501.22,0.967753
2503.63,0.969791
2506.04,0.968899
2508.45,0.968527
2510.86,0.968879
2513.27,0.969578
2515.68,0.969122
2518.1,0.969091
2520.51,0.969505
2522.92,0.969692
2525.33,0.96827
2527.74,0.96677
2530.15,0.967533
2532.56,0.967653
2534.97,0.967985
2537.38,0.967572
2539.79,0.966472
2542.2,0.966169
2544.61,0.966063
2547.02,0.966308
2549.43,0.964858
2551.84,0.965449
2554.25,0.968366
2556.66,0.967317
2559.08,0.964885
2561.49,0.965068
2563.9,0.96574
2566.31,0.964101
2568.72,0.964137
2571.13,0.963911
2573.54,0.962691
2575.95,0.962302
2578.36,0.964224
2580.77,0.963607
2583.18,0.962087
2585.59,0.962825
2588,0.964215
2590.41,0.963918
2592.82,0.963499
2595.23,0.962159
2597.64,0.959412
2600.06,0.959978
2602.47,0.959097
2604.88,0.957873
2607.29,0.957696
2609.7,0.957778
2612.11,0.957243
2614.52,0.955409
2616.93,0.955044
2619.34,0.953296
2621.75,0.952641
2624.16,0.95253
2626.57,0.951759
2628.98,0.951165
2631.39,0.950388
2633.8,0.949319
2636.21,0.949513
2638.62,0.948124
2641.04,0.945763
2643.45,0.943926
2645.86,0.944217
2648.27,0.944457
2650.68,0.944186
2653.09,0.94421
2655.5,0.943973
2657.91,0.944894
2660.32,0.94565
2662.73,0.944866
2665.14,0.944555
2667.55,0.944502
2669.96,0.944643
2672.37,0.945686
2674.78,0.945536
2677.19,0.945613
2679.6,0.946016
2682.02,0.946542
2684.43,0.946951
2686.84,0.947438
2689.25,0.947669
2691.66,0.94749
2694.07,0.947507
2696.48,0.947284
2698.89,0.948247
2701.3,0.948882
2703.71,0.948424
2706.12,0.948215
2708.53,0.948451
2710.94,0.948115
2713.35,0.948289
2715.76,0.948777
2718.17,0.948422
2720.58,0.947019
2722.99,0.946121
2725.41,0.945673
2727.82,0.944467
2730.23,0.944371
2732.64,0.944483
2735.05,0.943631
2737.46,0.943314
2739.87,0.94324
2742.28,0.941977
2744.69,0.941518
2747.1,0.941299
2749.51,0.940201
2751.92,0.93977
2754.33,0.940171
2756.74,0.938581
2759.15,0.937737
2761.56,0.937826
2763.97,0.937998
2766.39,0.937214
2768.8,0.936388
2771.21,0.93546
2773.62,0.934181
2776.03,0.933652
2778.44,0.933523
2780.85,0.933191
2783.26,0.932153
2785.67,0.930997
2788.08,0.929459
2790.49,0.927945
2792.9,0.926325
2795.31,0.92379
2797.72,0.92081
2800.13,0.918164
2802.54,0.914682
2804.95,0.910434
2807.37,0.906309
2809.78,0.90212
2812.19,0.897004
2814.6,0.892072
2817.01,0.887621
2819.42,0.883789
2821.83,0.878157
2824.24,0.872991
2826.65,0.866915
2829.06,0.859653
2831.47,0.850897
2833.88,0.840112
2836.29,0.827506
2838.7,0.811634
2841.11,0.792929
2843.52,0.770294
2845.93,0.741508
2848.35,0.70539
2850.76,0.657525
2853.17,0.591964
2855.58,0.496774
2857.99,0.368301
2860.4,0.219395
2862.81,0.100922
2865.22,0.0992999
2867.63,0.236845
2870.04,0.423113
2872.45,0.579861
2874.86,0.686339
2877.27,0.75164
2879.68,0.789949
2882.09,0.807402
2884.5,0.811426
2886.91,0.805575
2889.33,0.791311
2891.74,0.770377
2894.15,0.741747
2896.56,0.706344
2898.97,0.67124
2901.38,0.637174
2903.79,0.602749
2906.2,0.569863
2908.61,0.537649
2911.02,0.5051
2913.43,0.472477
2915.84,0.438257
2918.25,0.397585
2920.66,0.345335
2923.07,0.275755
2925.48,0.185922
2927.89,0.0832002
2930.31,0.00750713
2932.72,0.0201018
2935.13,0.117457
2937.54,0.24521
2939.95,0.372432
2942.36,0.482515
2944.77,0.57301
2947.18,0.648332
2949.59,0.710224
2952,0.763323
2954.41,0.808124
2956.82,0.844289
2959.23,0.873696
2961.64,0.895465
2964.05,0.911729
2966.46,0.922783
2968.87,0.930551
2971.29,0.934931
2973.7,0.939291
2976.11,0.944411
2978.52,0.948363
2980.93,0.950948
2983.34,0.954031
2985.75,0.957096
2988.16,0.957967
2990.57,0.961065
2992.98,0.964266
2995.39,0.966143
2997.8,0.966702
3000.21,0.966712
3002.62,0.968077
3005.03,0.969491
3007.44,0.970244
3009.85,0.970566
3012.27,0.971907
3014.68,0.972984
3017.09,0.97338
3019.5,0.974506
3021.91,0.974574
3024.32,0.973579
3026.73,0.973706
3029.14,0.974903
3031.55,0.974004
3033.96,0.974105
3036.37,0.974696
3038.78,0.972069
3041.19,0.971615
3043.6,0.973003
3046.01,0.972174
3048.42,0.971621
3050.83,0.971064
3053.24,0.970105
3055.66,0.971415
3058.07,0.973203
3060.48,0.972451
3062.89,0.972908
3065.3,0.97359
3067.71,0.971891
3070.12,0.971748
3072.53,0.971962
3074.94,0.972568
3077.35,0.973125
3079.76,0.973489
3082.17,0.972787
3084.58,0.9729
3086.99,0.973174
3089.4,0.973153
3091.81,0.973895
3094.22,0.972891
3096.64,0.972015
3099.05,0.97361
3101.46,0.973141
3103.87,0.973082
3106.28,0.975081
3108.69,0.974522
3111.1,0.971589
3113.51,0.971471
3115.92,0.972617
3118.33,0.973882
3120.74,0.974553
3123.15,0.975005
3125.56,0.975687
3127.97,0.975979
3130.38,0.976974
3132.79,0.976602
3135.2,0.975774
3137.62,0.976075
3140.03,0.975772
3142.44,0.975315
3144.85,0.976361
3147.26,0.976673
3149.67,0.976362
3152.08,0.975666
3154.49,0.974953
3156.9,0.97576
3159.31,0.977538
3161.72,0.976608
3164.13,0.977087
3166.54,0.976777
3168.95,0.975529
3171.36,0.976816
3173.77,0.976435
3176.18,0.976945
3178.6,0.976422
3181.01,0.975784
3183.42,0.976238
3185.83,0.977412
3188.24,0.979161
3190.65,0.978486
3193.06,0.978482
3195.47,0.976429
3197.88,0.975693
3200.29,0.977087
3202.7,0.977087
3205.11,0.975855
3207.52,0.976304
3209.93,0.976325
3212.34,0.975306
3214.75,0.974442
3217.16,0.975212
3219.58,0.976448
3221.99,0.976246
3224.4,0.975761
3226.81,0.975751
3229.22,0.976895
3231.63,0.977585
3234.04,0.979401
3236.45,0.976345
3238.86,0.975648
3241.27,0.974336
3243.68,0.974236
3246.09,0.975528
3248.5,0.975534
3250.91,0.974884
3253.32,0.974634
3255.73,0.977023
3258.14,0.972839
3260.56,0.973251
3262.97,0.975952
3265.38,0.974312
3267.79,0.97391
3270.2,0.974584
3272.61,0.97437
3275.02,0.974916
3277.43,0.974096
3279.84,0.973908
3282.25,0.976495
3284.66,0.976525
3287.07,0.976697
3289.48,0.97619
3291.89,0.975275
3294.3,0.9741
3296.71,0.972387
3299.12,0.972336
3301.54,0.974498
3303.95,0.974956
3306.36,0.973511
3308.77,0.971163
3311.18,0.971812
3313.59,0.974331
3316,0.975854
3318.41,0.975198
3320.82,0.97535
3323.23,0.97368
3325.64,0.974437
3328.05,0.974627
3330.46,0.973804
3332.87,0.975878
3335.28,0.977245
3337.69,0.976496
3340.1,0.975038
3342.51,0.975514
3344.93,0.977811
3347.34,0.97891
3349.75,0.975034
3352.16,0.974483
3354.57,0.975065
3356.98,0.973889
3359.39,0.974126
3361.8,0.974656
3364.21,0.976708
3366.62,0.975165
3369.03,0.976692
3371.44,0.974985
3373.85,0.975162
3376.26,0.97579
3378.67,0.973336
3381.08,0.973562
3383.49,0.973327
3385.91,0.973985
3388.32,0.974438
3390.73,0.972043
3393.14,0.972922
3395.55,0.973901
3397.96,0.975282
3400.37,0.973971
3402.78,0.973387
3405.19,0.97711
3407.6,0.977936
3410.01,0.978934
3412.42,0.97498
3414.83,0.973794
3417.24,0.977478
3419.65,0.975593
3422.06,0.973193
3424.47,0.974864
3426.89,0.972854
3429.3,0.973928
3431.71,0.975036
3434.12,0.974339
3436.53,0.975539
3438.94,0.976918
3441.35,0.977638
3443.76,0.977167
3446.17,0.97569
3448.58,0.974844
3450.99,0.97121
3453.4,0.971389
3455.81,0.973242
3458.22,0.976699
3460.63,0.978074
3463.04,0.977421
3465.45,0.97658
3467.87,0.973989
3470.28,0.975509
3472.69,0.97498
3475.1,0.976014
3477.51,0.977117
3479.92,0.978005
3482.33,0.976284
3484.74,0.975061
3487.15,0.975429
3489.56,0.975578
3491.97,0.977825
3494.38,0.978049
3496.79,0.97892
3499.2,0.980357
3501.61,0.979917
3504.02,0.975294
3506.43,0.972937
3508.85,0.973747
3511.26,0.973699
3513.67,0.974709
3516.08,0.974809
3518.49,0.974975
3520.9,0.976876
3523.31,0.977043
3525.72,0.977139
3528.13,0.979895
3530.54,0.979824
3532.95,0.980028
3535.36,0.98069
3537.77,0.978272
3540.18,0.977078
3542.59,0.978245
3545,0.976191
3547.41,0.976555
3549.83,0.975741
3552.24,0.977661
3554.65,0.980741
3557.06,0.979313
3559.47,0.975988
3561.88,0.975248
3564.29,0.975288
3566.7,0.97668
3569.11,0.976876
3571.52,0.97642
3573.93,0.974699
3576.34,0.975786
3578.75,0.977284
3581.16,0.976698
3583.57,0.97456
3585.98,0.976551
3588.39,0.979472
3590.81,0.979248
3593.22,0.979074
3595.63,0.978815
3598.04,0.979811
3600.45,0.978662
3602.86,0.971264
3605.27,0.97519
3607.68,0.980117
3610.09,0.976453
3612.5,0.97418
3614.91,0.974706
3617.32,0.978156
3619.73,0.97295
3622.14,0.971329
3624.55,0.973904
3626.96,0.976422
3629.37,0.973038
3631.78,0.970217
3634.2,0.973592
3636.61,0.977454
3639.02,0.981915
3641.43,0.978052
3643.84,0.976252
3646.25,0.976826
3648.66,0.977183
3651.07,0.974007
3653.48,0.97486
3655.89,0.981031
3658.3,0.981829
3660.71,0.980755
3663.12,0.978567
3665.53,0.975747
3667.94,0.979017
3670.35,0.97908
3672.76,0.97909
3675.18,0.980754
3677.59,0.980815
3680,0.980453
3682.41,0.974807
3684.82,0.972038
3687.23,0.976596
3689.64,0.981065
3692.05,0.983402
3694.46,0.979395
3696.87,0.979664
3699.28,0.981272
3701.69,0.976892
3704.1,0.972703
3706.51,0.975092
3708.92,0.981044
3711.33,0.981973
3713.74,0.980663
3716.16,0.982826
3718.57,0.981131
3720.98,0.977948
3723.39,0.978522
3725.8,0.974817
3728.21,0.97394
3730.62,0.979105
3733.03,0.984157
3735.44,0.984464
3737.85,0.986929
3740.26,0.983121
3742.67,0.98028
3745.08,0.975403
3747.49,0.975239
3749.9,0.977882
3752.31,0.9764
3754.72,0.976159
3757.14,0.980027
3759.55,0.980926
3761.96,0.974685
3764.37,0.974534
3766.78,0.976307
3769.19,0.979316
3771.6,0.98035
3774.01,0.981064
3776.42,0.978692
3778.83,0.976067
3781.24,0.974876
3783.65,0.976675
3786.06,0.974833
3788.47,0.974819
3790.88,0.980239
3793.29,0.98324
3795.7,0.979532
3798.12,0.97329
3800.53,0.975634
3802.94,0.978608
3805.35,0.979827
3807.76,0.979564
3810.17,0.97989
3812.58,0.982469
3814.99,0.982464
3817.4,0.98091
3819.81,0.980863
3822.22,0.981113
3824.63,0.98275
3827.04,0.981957
3829.45,0.978884
3831.86,0.978978
3834.27,0.978488
3836.68,0.976794
3839.1,0.979428
3841.51,0.981983
3843.92,0.986152
3846.33,0.979458
3848.74,0.979865
3851.15,0.979428
3853.56,0.980109
3855.97,0.981226
3858.38,0.980452
3860.79,0.977785
3863.2,0.980195
3865.61,0.980175
3868.02,0.979984
3870.43,0.980467
3872.84,0.977323
3875.25,0.97813
3877.66,0.976848
3880.08,0.977872
3882.49,0.97597
3884.9,0.97824
3887.31,0.979693
3889.72,0.980173
3892.13,0.980721
3894.54,0.977761
3896.95,0.980346
3899.36,0.977781
3901.77,0.977439
3904.18,0.98023
3906.59,0.97784
3909,0.97432
3911.41,0.975933
3913.82,0.977952
3916.23,0.978212
3918.64,0.977846
3921.05,0.978931
3923.47,0.979395
3925.88,0.973436
3928.29,0.973244
3930.7,0.97439
3933.11,0.977048
3935.52,0.97947
3937.93,0.978562
3940.34,0.979008
3942.75,0.979742
3945.16,0.979953
3947.57,0.979591
3949.98,0.97833
3952.39,0.978057
3954.8,0.976929
3957.21,0.973782
3959.62,0.9774
3962.03,0.980197
3964.45,0.980799
3966.86,0.978223
3969.27,0.978575
3971.68,0.981398
3974.09,0.981101
3976.5,0.979689
3978.91,0.980183
3981.32,0.9793
3983.73,0.977161
3986.14,0.9797
3988.55,0.982295
3990.96,0.982034
3993.37,0.978943
3995.78,0.981376
3998.19,0.983049
4000.12,0.981517