File: FTIR_data/LDPE.csv
449.815,0.792077
452.225,0.788524
454.636,0.783838
457.047,0.794432
459.457,0.80632
461.868,0.813231
464.278,0.812502
466.689,0.806088
469.1,0.80239
471.51,0.796891
473.921,0.805869
476.331,0.822029
478.742,0.807565
481.152,0.800504
483.563,0.804232
485.974,0.795315
488.384,0.79628
490.795,0.808112
493.205,0.813807
495.616,0.802328
498.027,0.790663
500.437,0.796968
502.848,0.798039
505.258,0.802332
507.669,0.806439
510.079,0.796568
512.49,0.788774
514.901,0.795436
517.311,0.798546
519.722,0.79365
522.132,0.788803
524.543,0.800043
526.954,0.797547
529.364,0.796038
531.775,0.791023
534.185,0.796681
536.596,0.791427
539.006,0.792914
541.417,0.79456
543.828,0.791618
546.238,0.784441
548.649,0.782569
551.059,0.784562
553.47,0.788354
555.881,0.792414
558.291,0.796145
560.702,0.798078
563.112,0.795648
565.523,0.799833
567.933,0.801123
570.344,0.802454
572.755,0.800263
575.165,0.801397
577.576,0.800197
579.986,0.804131
582.397,0.804316
584.808,0.804547
587.218,0.802286
589.629,0.803268
592.039,0.803373
594.45,0.805158
596.86,0.806019
599.271,0.803017
601.682,0.80293
604.092,0.803903
606.503,0.803295
608.913,0.798315
611.324,0.80045
613.735,0.802433
616.145,0.801221
618.556,0.800034
620.966,0.79964
623.377,0.800108
625.787,0.799434
628.198,0.798668
630.609,0.797297
633.019,0.795784
635.43,0.793071
637.84,0.792088
640.251,0.791275
642.662,0.789443
645.072,0.788063
647.483,0.786331
649.893,0.783553
652.304,0.781438
654.714,0.780263
657.125,0.778273
659.536,0.775976
661.946,0.77599
664.357,0.777007
666.767,0.778177
669.178,0.776105
671.589,0.758767
673.999,0.764203
676.41,0.773149
678.82,0.775359
681.231,0.773488
683.641,0.773316
686.052,0.775198
688.463,0.774967
690.873,0.776105
693.284,0.775108
695.694,0.774031
698.105,0.772979
700.516,0.771186
702.926,0.768797
705.337,0.766305
707.747,0.760215
710.158,0.747046
712.568,0.718614
714.979,0.658976
717.39,0.58854
719.8,0.515835
722.211,0.477368
724.621,0.531846
727.032,0.626635
729.443,0.685718
731.853,0.708082
734.264,0.724397
736.674,0.775811
739.085,0.81671
741.495,0.831562
743.906,0.839626
746.317,0.848231
748.727,0.853998
751.138,0.856407
753.548,0.860957
755.959,0.865564
758.37,0.869233
760.78,0.873637
763.191,0.877619
765.601,0.881134
768.012,0.882931
770.422,0.885746
772.833,0.888429
775.244,0.889983
777.654,0.891356
780.065,0.893193
782.475,0.895375
784.886,0.897113
787.297,0.899484
789.707,0.900716
792.118,0.900723
794.528,0.900055
796.939,0.901291
799.349,0.90156
801.76,0.901255
804.171,0.902129
806.581,0.905235
808.992,0.906328
811.402,0.905339
813.813,0.904795
816.224,0.906748
818.634,0.908068
821.045,0.909924
823.455,0.910494
825.866,0.909435
828.276,0.91131
830.687,0.913351
833.098,0.91326
835.508,0.914837
837.919,0.916321
840.329,0.916194
842.74,0.916228
845.151,0.9139
847.561,0.913553
849.972,0.913025
852.382,0.908646
854.793,0.911571
857.203,0.914714
859.614,0.913152
862.025,0.909958
864.435,0.906911
866.846,0.902424
869.256,0.893875
871.667,0.874014
874.078,0.830911
876.488,0.754441
878.899,0.681526
881.309,0.670649
883.72,0.734773
886.13,0.807329
888.541,0.854543
890.952,0.891516
893.362,0.914278
895.773,0.921786
898.183,0.924919
900.594,0.926072
903.005,0.926199
905.415,0.92583
907.826,0.92647
910.236,0.926551
912.647,0.925935
915.057,0.925823
917.468,0.927613
919.879,0.928198
922.289,0.928489
924.7,0.929431
927.11,0.929806
929.521,0.92939
931.932,0.928838
934.342,0.927959
936.753,0.927398
939.163,0.927282
941.574,0.927302
943.984,0.92701
946.395,0.928014
948.806,0.928771
951.216,0.92778
953.627,0.927385
956.037,0.928219
958.448,0.928023
960.859,0.927646
963.269,0.926989
965.68,0.926463
968.09,0.925526
970.501,0.92626
972.911,0.924918
975.322,0.922905
977.733,0.921374
980.143,0.920929
982.554,0.92254
984.964,0.9241
987.375,0.923972
989.786,0.923641
992.196,0.923796
994.607,0.923601
997.017,0.922762
999.428,0.920766
1001.84,0.919323
1004.25,0.91871
1006.66,0.9183
1009.07,0.917455
1011.48,0.915997
1013.89,0.915324
1016.3,0.91319
1018.71,0.910555
1021.12,0.908418
1023.53,0.906638
1025.94,0.906247
1028.35,0.906288
1030.77,0.907552
1033.18,0.910254
1035.59,0.910434
1038,0.910717
1040.41,0.912399
1042.82,0.91405
1045.23,0.915285
1047.64,0.915561
1050.05,0.916082
1052.46,0.916901
1054.87,0.916749
1057.28,0.917638
1059.69,0.917911
1062.1,0.917499
1064.51,0.917725
1066.92,0.916451
1069.33,0.916741
1071.75,0.91915
1074.16,0.918067
1076.57,0.916332
1078.98,0.916687
1081.39,0.916044
1083.8,0.915812
1086.21,0.914281
1088.62,0.912282
1091.03,0.911668
1093.44,0.91058
1095.85,0.909185
1098.26,0.907355
1100.67,0.907382
1103.08,0.907804
1105.49,0.908283
1107.9,0.908486
1110.31,0.907912
1112.73,0.90882
1115.14,0.910258
1117.55,0.911474
1119.96,0.912063
1122.37,0.912374
1124.78,0.912343
1127.19,0.912507
1129.6,0.912899
1132.01,0.914374
1134.42,0.916445
1136.83,0.917222
1139.24,0.917485
1141.65,0.918258
1144.06,0.918869
1146.47,0.919313
1148.88,0.919019
1151.29,0.919376
1153.71,0.919084
1156.12,0.918438
1158.53,0.918163
1160.94,0.918445
1163.35,0.917531
1165.76,0.916313
1168.17,0.915071
1170.58,0.914698
1172.99,0.914252
1175.4,0.914098
1177.81,0.915506
1180.22,0.916006
1182.63,0.916838
1185.04,0.917599
1187.45,0.919032
1189.86,0.919714
1192.27,0.919445
1194.69,0.919849
1197.1,0.920528
1199.51,0.921399
1201.92,0.921652
1204.33,0.920678
1206.74,0.920479
1209.15,0.920957
1211.56,0.921264
1213.97,0.920693
1216.38,0.920461
1218.79,0.919529
1221.2,0.919154
1223.61,0.918951
1226.02,0.918268
1228.43,0.917287
1230.84,0.916881
1233.25,0.916517
1235.67,0.914745
1238.08,0.912202
1240.49,0.909254
1242.9,0.905297
1245.31,0.901745
1247.72,0.900906
1250.13,0.899611
1252.54,0.899934
1254.95,0.900819
1257.36,0.900593
1259.77,0.899803
1262.18,0.897635
1264.59,0.895288
1267,0.892982
1269.41,0.891321
1271.82,0.891582
1274.23,0.893517
1276.64,0.895365
1279.06,0.896376
1281.47,0.895874
1283.88,0.894486
1286.29,0.892436
1288.7,0.89167
1291.11,0.891145
1293.52,0.890241
1295.93,0.889717
1298.34,0.889248
1300.75,0.887718
1303.16,0.886131
1305.57,0.88427
1307.98,0.882528
1310.39,0.88156
1312.8,0.88099
1315.21,0.880574
1317.62,0.879924
1320.04,0.878516
1322.45,0.877362
1324.86,0.876793
1327.27,0.876594
1329.68,0.8763
1332.09,0.873792
1334.5,0.87213
1336.91,0.869981
1339.32,0.865969
1341.73,0.861273
1344.14,0.857284
1346.55,0.853372
1348.96,0.848536
1351.37,0.844058
1353.78,0.839353
1356.19,0.833497
1358.6,0.827833
1361.02,0.822362
1363.43,0.816206
1365.84,0.809889
1368.25,0.802604
1370.66,0.794305
1373.07,0.785078
1375.48,0.776186
1377.89,0.767059
1380.3,0.755434
1382.71,0.737386
1385.12,0.724531
1387.53,0.727821
1389.94,0.738735
1392.35,0.740012
1394.76,0.73316
1397.17,0.723427
1399.58,0.712165
1402,0.701976
1404.41,0.690605
1406.82,0.682492
1409.23,0.677329
1411.64,0.670145
1414.05,0.659159
1416.46,0.645937
1418.87,0.630001
1421.28,0.61674
1423.69,0.604035
1426.1,0.593193
1428.51,0.587325
1430.92,0.582297
1433.33,0.577934
1435.74,0.572631
1438.15,0.570316
1440.56,0.568679
1442.98,0.566955
1445.39,0.569209
1447.8,0.573363
1450.21,0.57553
1452.62,0.577043
1455.03,0.578637
1457.44,0.577727
1459.85,0.572872
1462.26,0.563017
1464.67,0.555982
1467.08,0.542016
1469.49,0.509412
1471.9,0.478785
1474.31,0.471909
1476.72,0.466947
1479.13,0.462773
1481.54,0.524726
1483.96,0.663243
1486.37,0.745301
1488.78,0.774195
1491.19,0.791242
1493.6,0.803871
1496.01,0.812136
1498.42,0.820213
1500.83,0.828423
1503.24,0.8324
1505.65,0.838648
1508.06,0.845644
1510.47,0.850693
1512.88,0.855037
1515.29,0.859592
1517.7,0.867343
1520.11,0.87084
1522.52,0.872601
1524.94,0.87836
1527.35,0.882081
1529.76,0.882163
1532.17,0.88561
1534.58,0.891078
1536.99,0.894857
1539.4,0.895084
1541.81,0.897794
1544.22,0.903448
1546.63,0.902822
1549.04,0.902433
1551.45,0.908248
1553.86,0.910919
1556.27,0.91413
1558.68,0.913552
1561.09,0.914902
1563.5,0.915619
1565.91,0.916222
1568.33,0.919175
1570.74,0.92046
1573.15,0.921486
1575.56,0.922805
1577.97,0.922547
1580.38,0.9222
1582.79,0.922271
1585.2,0.923103
1587.61,0.926529
1590.02,0.92698
1592.43,0.927254
1594.84,0.927835
1597.25,0.927853
1599.66,0.926794
1602.07,0.92835
1604.48,0.931699
1606.89,0.932181
1609.31,0.932101
1611.72,0.933289
1614.13,0.934682
1616.54,0.932073
1618.95,0.930464
1621.36,0.93284
1623.77,0.934029
1626.18,0.933646
1628.59,0.935805
1631,0.936039
1633.41,0.934522
1635.82,0.932759
1638.23,0.932838
1640.64,0.933181
1643.05,0.929862
1645.46,0.930013
1647.87,0.929341
1650.29,0.931194
1652.7,0.931386
1655.11,0.92899
1657.52,0.929371
1659.93,0.930388
1662.34,0.9311
1664.75,0.931643
1667.16,0.933128
1669.57,0.934654
1671.98,0.936038
1674.39,0.936295
1676.8,0.936386
1679.21,0.93564
1681.62,0.938391
1684.03,0.93906
1686.44,0.93828
1688.85,0.939471
1691.27,0.94011
1693.68,0.941131
1696.09,0.938862
1698.5,0.940384
1700.91,0.943493
1703.32,0.942445
1705.73,0.938898
1708.14,0.940083
1710.55,0.937719
1712.96,0.938661
1715.37,0.938594
1717.78,0.940052
1720.19,0.939535
1722.6,0.938149
1725.01,0.936941
1727.42,0.935037
1729.83,0.935783
1732.25,0.934993
1734.66,0.93374
1737.07,0.933591
1739.48,0.932656
1741.89,0.929783
1744.3,0.927213
1746.71,0.928618
1749.12,0.928413
1751.53,0.927374
1753.94,0.930276
1756.35,0.934793
1758.76,0.936076
1761.17,0.937864
1763.58,0.940702
1765.99,0.942802
1768.4,0.944784
1770.81,0.944678
1773.23,0.943897
1775.64,0.94336
1778.05,0.943783
1780.46,0.944248
1782.87,0.942367
1785.28,0.944897
1787.69,0.947056
1790.1,0.94792
1792.51,0.944354
1794.92,0.942692
1797.33,0.943783
1799.74,0.942673
1802.15,0.938775
1804.56,0.938077
1806.97,0.940324
1809.38,0.940229
1811.79,0.940628
1814.21,0.942355
1816.62,0.944903
1819.03,0.945643
1821.44,0.947073
1823.85,0.946845
1826.26,0.946784
1828.67,0.948686
1831.08,0.948399
1833.49,0.946163
1835.9,0.944719
1838.31,0.945426
1840.72,0.946313
1843.13,0.946433
1845.54,0.947421
1847.95,0.949281
1850.36,0.947205
1852.77,0.946146
1855.18,0.945597
1857.6,0.945242
1860.01,0.94351
1862.42,0.944584
1864.83,0.945933
1867.24,0.945862
1869.65,0.944979
1872.06,0.944513
1874.47,0.94594
1876.88,0.946249
1879.29,0.942866
1881.7,0.943051
1884.11,0.945557
1886.52,0.946149
1888.93,0.944494
1891.34,0.943353
1893.75,0.944728
1896.16,0.945748
1898.58,0.944506
1900.99,0.943204
1903.4,0.942546
1905.81,0.941078
1908.22,0.940398
1910.63,0.939801
1913.04,0.938879
1915.45,0.942056
1917.86,0.943758
1920.27,0.9417
1922.68,0.939406
1925.09,0.93919
1927.5,0.940646
1929.91,0.941529
1932.32,0.94318
1934.73,0.941164
1937.14,0.940765
1939.56,0.93996
1941.97,0.938725
1944.38,0.937182
1946.79,0.939266
1949.2,0.93873
1951.61,0.939589
1954.02,0.937737
1956.43,0.934586
1958.84,0.934081
1961.25,0.939053
1963.66,0.939398
1966.07,0.939718
1968.48,0.937446
1970.89,0.931459
1973.3,0.927303
1975.71,0.924375
1978.12,0.929224
1980.54,0.929902
1982.95,0.926957
1985.36,0.919237
1987.77,0.9208
1990.18,0.922708
1992.59,0.923456
1995,0.925356
1997.41,0.9282
1999.82,0.931647
2002.23,0.933684
2004.64,0.932926
2007.05,0.934671
2009.46,0.936658
2011.87,0.936542
2014.28,0.935795
2016.69,0.931739
2019.1,0.924034
2021.52,0.926341
2023.93,0.931565
2026.34,0.935003
2028.75,0.938039
2031.16,0.932595
2033.57,0.931335
2035.98,0.934853
2038.39,0.938719
2040.8,0.940254
2043.21,0.944479
2045.62,0.941075
2048.03,0.934852
2050.44,0.933779
2052.85,0.939408
2055.26,0.942802
2057.67,0.944844
2060.08,0.942676
2062.5,0.946435
2064.91,0.95124
2067.32,0.945928
2069.73,0.944076
2072.14,0.944904
2074.55,0.944493
2076.96,0.946228
2079.37,0.947172
2081.78,0.948538
2084.19,0.949482
2086.6,0.948625
2089.01,0.950274
2091.42,0.952719
2093.83,0.953073
2096.24,0.953871
2098.65,0.952117
2101.06,0.950729
2103.48,0.954197
2105.89,0.955441
2108.3,0.952948
2110.71,0.953728
2113.12,0.953664
2115.53,0.954599
2117.94,0.956244
2120.35,0.955774
2122.76,0.956826
2125.17,0.956145
2127.58,0.958086
2129.99,0.957326
2132.4,0.955321
2134.81,0.957562
2137.22,0.962018
2139.63,0.965253
2142.04,0.965878
2144.45,0.968532
2146.87,0.969195
2149.28,0.969878
2151.69,0.972479
2154.1,0.974482
2156.51,0.974524
2158.92,0.975495
2161.33,0.981469
2163.74,0.988851
2166.15,0.991516
2168.56,0.997641
2170.97,0.99824
2173.38,0.989411
2175.79,0.982705
2178.2,0.975595
2180.61,0.978348
2183.02,0.977299
2185.43,0.9721
2187.85,0.971755
2190.26,0.976442
2192.67,0.975266
2195.08,0.968698
2197.49,0.968254
2199.9,0.964307
2202.31,0.96302
2204.72,0.967393
2207.13,0.968617
2209.54,0.967487
2211.95,0.968694
2214.36,0.967844
2216.77,0.970879
2219.18,0.972238
2221.59,0.973675
2224,0.971352
2226.41,0.967413
2228.83,0.966094
2231.24,0.967212
2233.65,0.965051
2236.06,0.965131
2238.47,0.964683
2240.88,0.96126
2243.29,0.96247
2245.7,0.962078
2248.11,0.959236
2250.52,0.961494
2252.93,0.964962
2255.34,0.963251
2257.75,0.962865
2260.16,0.962165
2262.57,0.961931
2264.98,0.964349
2267.39,0.962316
2269.81,0.96008
2272.22,0.958804
2274.63,0.956448
2277.04,0.957466
2279.45,0.957295
2281.86,0.957149
2284.27,0.953779
2286.68,0.949974
2289.09,0.95097
2291.5,0.952768
2293.91,0.952349
2296.32,0.952255
2298.73,0.951779
2301.14,0.952907
2303.55,0.950814
2305.96,0.949847
2308.37,0.948523
2310.79,0.946446
2313.2,0.944309
2315.61,0.944381
2318.02,0.943581
2320.43,0.940535
2322.84,0.939218
2325.25,0.935969
2327.66,0.933213
2330.07,0.928971
2332.48,0.923556
2334.89,0.918793
2337.3,0.91588
2339.71,0.914237
2342.12,0.911685
2344.53,0.911754
2346.94,0.912677
2349.35,0.913605
2351.77,0.914162
2354.18,0.91326
2356.59,0.910679
2359,0.913941
2361.41,0.921245
2363.82,0.91699
2366.23,0.905046
2368.64,0.895997
2371.05,0.888916
2373.46,0.885975
2375.87,0.886744
2378.28,0.888904
2380.69,0.895094
2383.1,0.903293
2385.51,0.913079
2387.92,0.922394
2390.33,0.929162
2392.75,0.937339
2395.16,0.945644
2397.57,0.950042
2399.98,0.951297
2402.39,0.952069
2404.8,0.953955
2407.21,0.954371
2409.62,0.955357
2412.03,0.957434
2414.44,0.960168
2416.85,0.96075
2419.26,0.961173
2421.67,0.961586
2424.08,0.962322
2426.49,0.962805
2428.9,0.963474
2431.31,0.961781
2433.72,0.960859
2436.14,0.96134
2438.55,0.961066
2440.96,0.960226
2443.37,0.95823
2445.78,0.957777
2448.19,0.959101
2450.6,0.959437
2453.01,0.958454
2455.42,0.958585
2457.83,0.958463
2460.24,0.957949
2462.65,0.957311
2465.06,0.958619
2467.47,0.959364
2469.88,0.960359
2472.29,0.96004
2474.7,0.959921
2477.12,0.959143
2479.53,0.958401
2481.94,0.959423
2484.35,0.9594
2486.76,0.959166
2489.17,0.959362
2491.58,0.959921
2493.99,0.959801
2496.4,0.960576
2498.81,0.959636
2501.22,0.959599
2503.63,0.959993
2506.04,0.960229
2508.45,0.959379
2510.86,0.958444
2513.27,0.958477
2515.68,0.95901
2518.1,0.959361
2520.51,0.958159
2522.92,0.957548
2525.33,0.956851
2527.74,0.95542
2530.15,0.95539
2532.56,0.955159
2534.97,0.954551
2537.38,0.95554
2539.79,0.956554
2542.2,0.95592
2544.61,0.955326
2547.02,0.956004
2549.43,0.956066
2551.84,0.957332
2554.25,0.957901
2556.66,0.956372
2559.08,0.955891
2561.49,0.956461
2563.9,0.956031
2566.31,0.95468
2568.72,0.954713
2571.13,0.954892
2573.54,0.954461
2575.95,0.954343
2578.36,0.954445
2580.77,0.953802
2583.18,0.953569
2585.59,0.953322
2588,0.953584
2590.41,0.952083
2592.82,0.951909
2595.23,0.952744
2597.64,0.951818
2600.06,0.950716
2602.47,0.950471
2604.88,0.949969
2607.29,0.949714
2609.7,0.950017
2612.11,0.948828
2614.52,0.947897
2616.93,0.946916
2619.34,0.94525
2621.75,0.94434
2624.16,0.944538
2626.57,0.943875
2628.98,0.943277
2631.39,0.942924
2633.8,0.942408
2636.21,0.94211
2638.62,0.94061
2641.04,0.938899
2643.45,0.937798
2645.86,0.937189
2648.27,0.936352
2650.68,0.935932
2653.09,0.936259
2655.5,0.936434
2657.91,0.936439
2660.32,0.936988
2662.73,0.937086
2665.14,0.936826
2667.55,0.936892
2669.96,0.937337
2672.37,0.937606
2674.78,0.937481
2677.19,0.937289
2679.6,0.936901
2682.02,0.93763
2684.43,0.93844
2686.84,0.938757
2689.25,0.938709
2691.66,0.939043
2694.07,0.939384
2696.48,0.939671
2698.89,0.93971
2701.3,0.9399
2703.71,0.940418
2706.12,0.940804
2708.53,0.941225
2710.94,0.940751
2713.35,0.940325
2715.76,0.939939
2718.17,0.939607
2720.58,0.93895
2722.99,0.938123
2725.41,0.937675
2727.82,0.93725
2730.23,0.936598
2732.64,0.936015
2735.05,0.935745
2737.46,0.935282
2739.87,0.935375
2742.28,0.934809
2744.69,0.934173
2747.1,0.934432
2749.51,0.933888
2751.92,0.933738
2754.33,0.934012
2756.74,0.933093
2759.15,0.932426
2761.56,0.932221
2763.97,0.932164
2766.39,0.931765
2768.8,0.931569
2771.21,0.930905
2773.62,0.930797
2776.03,0.930611
2778.44,0.929974
2780.85,0.928809
2783.26,0.927673
2785.67,0.926363
2788.08,0.925395
2790.49,0.924756
2792.9,0.922244
2795.31,0.920347
2797.72,0.91885
2800.13,0.916324
2802.54,0.913196
2804.95,0.910699
2807.37,0.908124
2809.78,0.904039
2812.19,0.899658
2814.6,0.895543
2817.01,0.891273
2819.42,0.886654
2821.83,0.881717
2824.24,0.877376
2826.65,0.872287
2829.06,0.866969
2831.47,0.85999
2833.88,0.850372
2836.29,0.839428
2838.7,0.825179
2841.11,0.808856
2843.52,0.788853
2845.93,0.762311
2848.35,0.72697
2850.76,0.679308
2853.17,0.616372
2855.58,0.529281
2857.99,0.407978
2860.4,0.258318
2862.81,0.122052
2865.22,0.080407
2867.63,0.176503
2870.04,0.342976
2872.45,0.497788
2874.86,0.610371
2877.27,0.683445
2879.68,0.727365
2882.09,0.74858
2884.5,0.756143
2886.91,0.754829
2889.33,0.747029
2891.74,0.733671
2894.15,0.714264
2896.56,0.688032
2898.97,0.659893
2901.38,0.631176
2903.79,0.599763
2906.2,0.565888
2908.61,0.532053
2911.02,0.497659
2913.43,0.463592
2915.84,0.429062
2918.25,0.39006
2920.66,0.34086
2923.07,0.277868
2925.48,0.196217
2927.89,0.100375
2930.31,0.0198846
2932.72,0.00366449
2935.13,0.0660189
2937.54,0.171598
2939.95,0.28732
2942.36,0.39418
2944.77,0.486439
2947.18,0.563814
2949.59,0.62961
2952,0.685773
2954.41,0.734104
2956.82,0.773737
2959.23,0.805972
2961.64,0.828076
2964.05,0.841432
2966.46,0.848989
2968.87,0.854289
2971.29,0.858285
2973.7,0.863045
2976.11,0.870333
2978.52,0.878068
2980.93,0.886034
2983.34,0.895558
2985.75,0.905789
2988.16,0.914169
2990.57,0.920938
2992.98,0.927181
2995.39,0.932102
2997.8,0.935228
3000.21,0.937457
3002.62,0.939964
3005.03,0.942481
3007.44,0.943749
3009.85,0.944099
3012.27,0.94506
3014.68,0.946955
3017.09,0.94761
3019.5,0.947399
3021.91,0.947336
3024.32,0.947955
3026.73,0.947583
3029.14,0.947432
3031.55,0.947254
3033.96,0.946851
3036.37,0.947562
3038.78,0.947104
3041.19,0.946461
3043.6,0.947711
3046.01,0.94703
3048.42,0.946071
3050.83,0.945975
3053.24,0.946532
3055.66,0.946454
3058.07,0.946614
3060.48,0.947092
3062.89,0.948172
3065.3,0.948673
3067.71,0.948145
3070.12,0.94825
3072.53,0.948346
3074.94,0.947503
3077.35,0.947365
3079.76,0.946662
3082.17,0.946342
3084.58,0.94714
3086.99,0.948192
3089.4,0.948686
3091.81,0.949136
3094.22,0.94784
3096.64,0.947921
3099.05,0.949182
3101.46,0.950047
3103.87,0.949814
3106.28,0.94972
3108.69,0.950877
3111.1,0.950351
3113.51,0.949788
3115.92,0.95051
3118.33,0.950701
3120.74,0.950759
3123.15,0.950227
3125.56,0.950743
3127.97,0.95144
3130.38,0.952557
3132.79,0.952486
3135.2,0.95104
3137.62,0.950304
3140.03,0.950926
3142.44,0.9519
3144.85,0.951901
3147.26,0.952445
3149.67,0.952081
3152.08,0.951386
3154.49,0.951617
3156.9,0.952217
3159.31,0.952773
3161.72,0.951837
3164.13,0.951721
3166.54,0.9514
3168.95,0.952129
3171.36,0.953348
3173.77,0.951925
3176.18,0.95164
3178.6,0.951956
3181.01,0.952675
3183.42,0.952792
3185.83,0.95277
3188.24,0.952231
3190.65,0.951789
3193.06,0.953725
3195.47,0.954145
3197.88,0.951652
3200.29,0.950714
3202.7,0.952872
3205.11,0.952721
3207.52,0.951684
3209.93,0.952486
3212.34,0.951926
3214.75,0.950373
3217.16,0.951592
3219.58,0.951836
3221.99,0.950648
3224.4,0.949928
3226.81,0.949687
3229.22,0.950714
3231.63,0.951627
3234.04,0.951702
3236.45,0.950567
3238.86,0.950354
3241.27,0.95075
3243.68,0.950934
3246.09,0.951063
3248.5,0.950555
3250.91,0.950149
3253.32,0.950626
3255.73,0.950992
3258.14,0.948494
3260.56,0.949676
3262.97,0.951257
3265.38,0.949657
3267.79,0.949993
3270.2,0.950778
3272.61,0.950105
3275.02,0.949921
3277.43,0.950196
3279.84,0.949061
3282.25,0.949796
3284.66,0.950542
3287.07,0.951111
3289.48,0.950786
3291.89,0.948941
3294.3,0.949335
3296.71,0.948306
3299.12,0.948005
3301.54,0.949816
3303.95,0.951175
3306.36,0.950405
3308.77,0.947737
3311.18,0.947343
3313.59,0.949646
3316,0.949393
3318.41,0.949334
3320.82,0.94964
3323.23,0.947833
3325.64,0.947853
3328.05,0.949508
3330.46,0.948242
3332.87,0.94907
3335.28,0.948759
3337.69,0.947849
3340.1,0.948178
3342.51,0.949327
3344.93,0.950218
3347.34,0.950289
3349.75,0.950245
3352.16,0.950598
3354.57,0.949923
3356.98,0.948846
3359.39,0.949444
3361.8,0.949823
3364.21,0.950232
3366.62,0.950167
3369.03,0.950322
3371.44,0.950335
3373.85,0.949312
3376.26,0.94896
3378.67,0.950107
3381.08,0.950023
3383.49,0.948564
3385.91,0.949841
3388.32,0.950305
3390.73,0.950364
3393.14,0.951003
3395.55,0.950974
3397.96,0.950162
3400.37,0.949652
3402.78,0.949928
3405.19,0.951439
3407.6,0.951312
3410.01,0.951914
3412.42,0.950119
3414.83,0.951015
3417.24,0.952995
3419.65,0.950852
3422.06,0.94838
3424.47,0.948768
3426.89,0.948872
3429.3,0.949872
3431.71,0.951183
3434.12,0.951543
3436.53,0.951209
3438.94,0.951604
3441.35,0.95071
3443.76,0.950682
3446.17,0.952093
3448.58,0.95181
3450.99,0.9504
3453.4,0.951076
3455.81,0.952003
3458.22,0.953355
3460.63,0.953674
3463.04,0.952966
3465.45,0.952603
3467.87,0.952255
3470.28,0.954033
3472.69,0.954707
3475.1,0.954614
3477.51,0.954761
3479.92,0.956138
3482.33,0.955073
3484.74,0.951564
3487.15,0.950846
3489.56,0.953602
3491.97,0.954431
3494.38,0.955553
3496.79,0.956962
3499.2,0.956247
3501.61,0.95577
3504.02,0.953339
3506.43,0.951501
3508.85,0.951302
3511.26,0.953387
3513.67,0.954569
3516.08,0.95288
3518.49,0.953554
3520.9,0.955823
3523.31,0.955676
3525.72,0.956004
3528.13,0.956115
3530.54,0.957332
3532.95,0.958448
3535.36,0.955699
3537.77,0.956381
3540.18,0.957541
3542.59,0.955902
3545,0.952561
3547.41,0.954284
3549.83,0.955521
3552.24,0.956395
3554.65,0.957808
3557.06,0.958552
3559.47,0.95743
3561.88,0.957613
3564.29,0.956342
3566.7,0.955406
3569.11,0.953391
3571.52,0.953912
3573.93,0.954313
3576.34,0.954069
3578.75,0.953954
3581.16,0.956771
3583.57,0.956207
3585.98,0.952579
3588.39,0.953862
3590.81,0.956119
3593.22,0.955114
3595.63,0.955568
3598.04,0.957509
3600.45,0.958443
3602.86,0.958142
3605.27,0.957428
3607.68,0.958038
3610.09,0.95524
3612.5,0.954413
3614.91,0.95511
3617.32,0.956553
3619.73,0.954451
3622.14,0.95424
3624.55,0.953038
3626.96,0.953391
3629.37,0.951468
3631.78,0.947497
3634.2,0.950953
3636.61,0.956269
3639.02,0.957426
3641.43,0.954665
3643.84,0.954631
3646.25,0.956156
3648.66,0.956492
3651.07,0.949658
3653.48,0.951551
3655.89,0.95353
3658.3,0.952018
3660.71,0.949267
3663.12,0.94764
3665.53,0.951282
3667.94,0.956952
3670.35,0.956957
3672.76,0.956887
3675.18,0.960256
3677.59,0.962248
3680,0.961683
3682.41,0.958511
3684.82,0.960302
3687.23,0.962244
3689.64,0.962115
3692.05,0.961801
3694.46,0.958181
3696.87,0.957704
3699.28,0.96015
3701.69,0.957782
3704.1,0.955646
3706.51,0.957922
3708.92,0.96194
3711.33,0.962726
3713.74,0.959588
3716.16,0.958468
3718.57,0.955873
3720.98,0.954566
3723.39,0.956453
3725.8,0.952995
3728.21,0.952669
3730.62,0.958963
3733.03,0.96342
3735.44,0.962321
3737.85,0.960889
3740.26,0.960989
3742.67,0.961413
3745.08,0.956532
3747.49,0.957163
3749.9,0.959916
3752.31,0.958046
3754.72,0.959536
3757.14,0.957626
3759.55,0.956467
3761.96,0.955446
3764.37,0.954811
3766.78,0.956964
3769.19,0.961221
3771.6,0.962613
3774.01,0.961233
3776.42,0.956865
3778.83,0.95223
3781.24,0.952907
3783.65,0.952496
3786.06,0.953535
3788.47,0.954906
3790.88,0.955476
3793.29,0.959053
3795.7,0.961403
3798.12,0.956293
3800.53,0.956482
3802.94,0.956714
3805.35,0.958489
3807.76,0.962365
3810.17,0.963029
3812.58,0.962207
3814.99,0.961004
3817.4,0.961378
3819.81,0.960786
3822.22,0.957314
3824.63,0.959354
3827.04,0.965599
3829.45,0.961877
3831.86,0.959821
3834.27,0.958292
3836.68,0.958292
3839.1,0.95642
3841.51,0.95697
3843.92,0.961847
3846.33,0.958533
3848.74,0.95893
3851.15,0.958056
3853.56,0.957632
3855.97,0.957301
3858.38,0.957567
3860.79,0.957323
3863.2,0.957962
3865.61,0.958438
3868.02,0.957362
3870.43,0.956766
3872.84,0.957408
3875.25,0.960254
3877.66,0.957386
3880.08,0.957122
3882.49,0.956413
3884.9,0.957572
3887.31,0.955651
3889.72,0.955534
3892.13,0.959434
3894.54,0.958854
3896.95,0.959748
3899.36,0.958699
3901.77,0.956316
3904.18,0.957075
3906.59,0.95685
3909,0.954482
3911.41,0.958686
3913.82,0.960586
3916.23,0.958981
3918.64,0.956359
3921.05,0.957587
3923.47,0.958371
3925.88,0.954461
3928.29,0.954049
3930.7,0.953442
3933.11,0.95427
3935.52,0.956465
3937.93,0.95654
3940.34,0.956013
3942.75,0.956289
3945.16,0.956747
3947.57,0.955801
3949.98,0.955432
3952.39,0.954784
3954.8,0.955058
3957.21,0.953492
3959.62,0.956664
3962.03,0.956457
3964.45,0.956124
3966.86,0.956612
3969.27,0.956127
3971.68,0.956719
3974.09,0.95614
3976.5,0.955371
3978.91,0.955148
3981.32,0.954207
3983.73,0.954603
3986.14,0.956467
3988.55,0.956691
3990.96,0.956323
3993.37,0.955782
3995.78,0.956793
3998.19,0.958254
4000.12,0.958069