File: FTIR_data/Nylon 6.csv
449.815,0.641901
452.225,0.662076
454.636,0.67335
457.047,0.672041
459.457,0.681314
461.868,0.680278
464.278,0.676043
466.689,0.665982
469.1,0.666723
471.51,0.66747
473.921,0.649653
476.331,0.647862
478.742,0.641298
481.152,0.63693
483.563,0.635197
485.974,0.622727
488.384,0.626277
490.795,0.617931
493.205,0.599291
495.616,0.597777
498.027,0.594526
500.437,0.582079
502.848,0.580599
505.258,0.5813
507.669,0.573273
510.079,0.571116
512.49,0.561064
514.901,0.551454
517.311,0.546927
519.722,0.532678
522.132,0.515799
524.543,0.510928
526.954,0.519281
529.364,0.547309
531.775,0.569265
534.185,0.579891
536.596,0.579116
539.006,0.582609
541.417,0.588997
543.828,0.591906
546.238,0.589717
548.649,0.584532
551.059,0.578771
553.47,0.573751
555.881,0.557147
558.291,0.544325
560.702,0.533435
563.112,0.51746
565.523,0.498596
567.933,0.482182
570.344,0.459771
572.755,0.436855
575.165,0.417769
577.576,0.406775
579.986,0.411957
582.397,0.431302
584.808,0.455076
587.218,0.476921
589.629,0.495403
592.039,0.51067
594.45,0.523464
596.86,0.533711
599.271,0.544656
601.682,0.552291
604.092,0.555079
606.503,0.556985
608.913,0.562011
611.324,0.56546
613.735,0.567163
616.145,0.569243
618.556,0.572912
620.966,0.574051
623.377,0.5755
625.787,0.578119
628.198,0.576251
630.609,0.576811
633.019,0.579726
635.43,0.584025
637.84,0.588787
640.251,0.591407
642.662,0.591332
645.072,0.586758
647.483,0.581302
649.893,0.576263
652.304,0.579247
654.714,0.583001
657.125,0.587002
659.536,0.588745
661.946,0.585489
664.357,0.573567
666.767,0.549135
669.178,0.522506
671.589,0.493837
673.999,0.474981
676.41,0.469114
678.82,0.458966
681.231,0.449222
683.641,0.44074
686.052,0.432201
688.463,0.427697
690.873,0.429735
693.284,0.441271
695.694,0.463557
698.105,0.492473
700.516,0.517446
702.926,0.535417
705.337,0.547335
707.747,0.551336
710.158,0.550958
712.568,0.548034
714.979,0.545502
717.39,0.54728
719.8,0.553343
722.211,0.557622
724.621,0.560117
727.032,0.560917
729.443,0.556577
731.853,0.551269
734.264,0.560216
736.674,0.59162
739.085,0.631992
741.495,0.666227
743.906,0.69172
746.317,0.709817
748.727,0.723828
751.138,0.73652
753.548,0.747791
755.959,0.75661
758.37,0.764049
760.78,0.770298
763.191,0.775433
765.601,0.780262
768.012,0.782136
770.422,0.782677
772.833,0.783996
775.244,0.78448
777.654,0.7856
780.065,0.786755
782.475,0.787965
784.886,0.790402
787.297,0.795451
789.707,0.799702
792.118,0.8034
794.528,0.807178
796.939,0.811969
799.349,0.818098
801.76,0.823249
804.171,0.827281
806.581,0.832556
808.992,0.837464
811.402,0.842921
813.813,0.850218
816.224,0.858347
818.634,0.866384
821.045,0.876332
823.455,0.886471
825.866,0.894574
828.276,0.901295
830.687,0.905696
833.098,0.905124
835.508,0.898059
837.919,0.888689
840.329,0.888471
842.74,0.894452
845.151,0.899507
847.561,0.901552
849.972,0.902625
852.382,0.905382
854.793,0.90894
857.203,0.914451
859.614,0.922864
862.025,0.933227
864.435,0.942677
866.846,0.946233
869.256,0.939472
871.667,0.929014
874.078,0.918667
876.488,0.910449
878.899,0.904689
881.309,0.900674
883.72,0.897033
886.13,0.893529
888.541,0.89171
890.952,0.889618
893.362,0.88845
895.773,0.888028
898.183,0.88778
900.594,0.887448
903.005,0.887076
905.415,0.888189
907.826,0.888647
910.236,0.887588
912.647,0.886407
915.057,0.884012
917.468,0.882034
919.879,0.879097
922.289,0.875732
924.7,0.872328
927.11,0.865844
929.521,0.856645
931.932,0.846207
934.342,0.841515
936.753,0.847276
939.163,0.857893
941.574,0.867483
943.984,0.871902
946.395,0.872883
948.806,0.871719
951.216,0.867842
953.627,0.861019
956.037,0.856619
958.448,0.855483
960.859,0.852565
963.269,0.849219
965.68,0.852722
968.09,0.863537
970.501,0.870614
972.911,0.869064
975.322,0.862789
977.733,0.857112
980.143,0.854284
982.554,0.853415
984.964,0.854178
987.375,0.855748
989.786,0.857916
992.196,0.860734
994.607,0.865253
997.017,0.87096
999.428,0.875672
1001.84,0.878781
1004.25,0.881306
1006.66,0.882971
1009.07,0.88506
1011.48,0.885651
1013.89,0.886933
1016.3,0.88831
1018.71,0.890937
1021.12,0.895962
1023.53,0.904646
1025.94,0.910056
1028.35,0.903427
1030.77,0.890523
1033.18,0.879427
1035.59,0.875914
1038,0.877145
1040.41,0.879772
1042.82,0.879931
1045.23,0.879196
1047.64,0.87897
1050.05,0.87821
1052.46,0.876544
1054.87,0.87435
1057.28,0.870631
1059.69,0.865867
1062.1,0.861119
1064.51,0.857351
1066.92,0.853659
1069.33,0.849039
1071.75,0.844102
1074.16,0.842148
1076.57,0.842141
1078.98,0.843153
1081.39,0.84813
1083.8,0.85647
1086.21,0.868781
1088.62,0.883864
1091.03,0.898686
1093.44,0.910255
1095.85,0.915396
1098.26,0.914518
1100.67,0.90696
1103.08,0.89374
1105.49,0.878889
1107.9,0.865217
1110.31,0.851518
1112.73,0.838602
1115.14,0.827791
1117.55,0.818575
1119.96,0.809936
1122.37,0.801713
1124.78,0.796707
1127.19,0.795953
1129.6,0.801938
1132.01,0.818072
1134.42,0.842286
1136.83,0.86704
1139.24,0.887296
1141.65,0.903444
1144.06,0.916977
1146.47,0.928865
1148.88,0.935505
1151.29,0.932354
1153.71,0.918755
1156.12,0.897222
1158.53,0.871523
1160.94,0.843639
1163.35,0.814426
1165.76,0.782555
1168.17,0.748644
1170.58,0.712532
1172.99,0.678588
1175.4,0.657128
1177.81,0.657421
1180.22,0.676653
1182.63,0.706815
1185.04,0.736597
1187.45,0.757016
1189.86,0.763454
1192.27,0.757623
1194.69,0.741798
1197.1,0.718453
1199.51,0.689544
1201.92,0.654674
1204.33,0.614457
1206.74,0.58724
1209.15,0.601103
1211.56,0.642415
1213.97,0.673689
1216.38,0.686997
1218.79,0.694635
1221.2,0.705242
1223.61,0.722466
1226.02,0.742269
1228.43,0.753731
1230.84,0.74883
1233.25,0.729131
1235.67,0.700982
1238.08,0.669839
1240.49,0.641686
1242.9,0.622939
1245.31,0.615988
1247.72,0.617696
1250.13,0.622333
1252.54,0.624206
1254.95,0.620602
1257.36,0.60994
1259.77,0.594052
1262.18,0.574327
1264.59,0.553868
1267,0.537456
1269.41,0.531819
1271.82,0.54577
1274.23,0.582127
1276.64,0.625041
1279.06,0.656491
1281.47,0.669853
1283.88,0.671577
1286.29,0.671995
1288.7,0.675376
1291.11,0.682047
1293.52,0.689556
1295.93,0.693146
1298.34,0.693776
1300.75,0.697041
1303.16,0.703325
1305.57,0.708748
1307.98,0.714234
1310.39,0.721239
1312.8,0.730503
1315.21,0.741761
1317.62,0.754395
1320.04,0.765149
1322.45,0.77336
1324.86,0.778638
1327.27,0.780215
1329.68,0.780046
1332.09,0.776897
1334.5,0.77101
1336.91,0.763483
1339.32,0.757103
1341.73,0.753294
1344.14,0.753326
1346.55,0.75509
1348.96,0.755436
1351.37,0.755132
1353.78,0.754875
1356.19,0.753809
1358.6,0.750684
1361.02,0.745332
1363.43,0.736746
1365.84,0.726355
1368.25,0.715272
1370.66,0.701437
1373.07,0.686181
1375.48,0.671434
1377.89,0.659229
1380.3,0.651795
1382.71,0.652299
1385.12,0.663066
1387.53,0.680231
1389.94,0.696603
1392.35,0.71119
1394.76,0.727
1397.17,0.741968
1399.58,0.750341
1402,0.755614
1404.41,0.760773
1406.82,0.762527
1409.23,0.756985
1411.64,0.743223
1414.05,0.718909
1416.46,0.686932
1418.87,0.647387
1421.28,0.607811
1423.69,0.580501
1426.1,0.571959
1428.51,0.58268
1430.92,0.596687
1433.33,0.606361
1435.74,0.603586
1438.15,0.588101
1440.56,0.5691
1442.98,0.559412
1445.39,0.560786
1447.8,0.568832
1450.21,0.578659
1452.62,0.586995
1455.03,0.590466
1457.44,0.587254
1459.85,0.580998
1462.26,0.573123
1464.67,0.55878
1467.08,0.527634
1469.49,0.501533
1471.9,0.497967
1474.31,0.53414
1476.72,0.57561
1479.13,0.597082
1481.54,0.591622
1483.96,0.580802
1486.37,0.590948
1488.78,0.618608
1491.19,0.656723
1493.6,0.687399
1496.01,0.701378
1498.42,0.69973
1500.83,0.68997
1503.24,0.676382
1505.65,0.653263
1508.06,0.622102
1510.47,0.590861
1512.88,0.562317
1515.29,0.524063
1517.7,0.482851
1520.11,0.448601
1522.52,0.409861
1524.94,0.367957
1527.35,0.32086
1529.76,0.276361
1532.17,0.22623
1534.58,0.185123
1536.99,0.143512
1539.4,0.110149
1541.81,0.0851811
1544.22,0.0682029
1546.63,0.0645624
1549.04,0.0731199
1551.45,0.0972456
1553.86,0.12862
1556.27,0.166938
1558.68,0.20707
1561.09,0.247472
1563.5,0.284979
1565.91,0.315127
1568.33,0.355705
1570.74,0.390826
1573.15,0.419952
1575.56,0.455259
1577.97,0.489854
1580.38,0.530504
1582.79,0.561736
1585.2,0.595415
1587.61,0.628238
1590.02,0.653155
1592.43,0.672921
1594.84,0.685495
1597.25,0.692609
1599.66,0.69437
1602.07,0.690287
1604.48,0.678851
1606.89,0.664217
1609.31,0.642156
1611.72,0.607631
1614.13,0.566538
1616.54,0.519149
1618.95,0.462945
1621.36,0.403469
1623.77,0.342181
1626.18,0.267632
1628.59,0.198464
1631,0.147238
1633.41,0.0983269
1635.82,0.0637369
1638.23,0.0351458
1640.64,0.0139763
1643.05,0.000568748
1645.46,0.00739396
1647.87,0.0401682
1650.29,0.0931209
1652.7,0.157146
1655.11,0.222065
1657.52,0.298727
1659.93,0.352558
1662.34,0.404781
1664.75,0.466062
1667.16,0.502319
1669.57,0.540906
1671.98,0.58413
1674.39,0.630254
1676.8,0.674624
1679.21,0.721564
1681.62,0.762782
1684.03,0.796137
1686.44,0.827969
1688.85,0.851259
1691.27,0.871644
1693.68,0.891508
1696.09,0.910325
1698.5,0.918911
1700.91,0.9276
1703.32,0.932062
1705.73,0.934782
1708.14,0.938968
1710.55,0.943748
1712.96,0.947272
1715.37,0.948458
1717.78,0.950687
1720.19,0.951823
1722.6,0.951501
1725.01,0.951151
1727.42,0.952141
1729.83,0.954351
1732.25,0.955538
1734.66,0.957321
1737.07,0.957842
1739.48,0.957063
1741.89,0.957044
1744.3,0.958287
1746.71,0.960077
1749.12,0.961781
1751.53,0.961427
1753.94,0.961796
1756.35,0.962976
1758.76,0.964218
1761.17,0.96562
1763.58,0.967536
1765.99,0.969712
1768.4,0.970777
1770.81,0.970703
1773.23,0.971023
1775.64,0.971189
1778.05,0.971338
1780.46,0.973008
1782.87,0.974108
1785.28,0.974518
1787.69,0.97461
1790.1,0.97533
1792.51,0.97651
1794.92,0.976372
1797.33,0.976284
1799.74,0.97606
1802.15,0.976972
1804.56,0.978268
1806.97,0.979338
1809.38,0.979738
1811.79,0.979689
1814.21,0.978178
1816.62,0.977593
1819.03,0.979094
1821.44,0.980477
1823.85,0.98112
1826.26,0.981452
1828.67,0.980558
1831.08,0.981763
1833.49,0.982548
1835.9,0.982375
1838.31,0.98277
1840.72,0.983589
1843.13,0.982507
1845.54,0.983129
1847.95,0.982348
1850.36,0.982035
1852.77,0.98228
1855.18,0.982603
1857.6,0.983477
1860.01,0.984143
1862.42,0.984824
1864.83,0.984399
1867.24,0.984752
1869.65,0.984939
1872.06,0.982858
1874.47,0.984643
1876.88,0.984658
1879.29,0.984606
1881.7,0.984737
1884.11,0.984552
1886.52,0.983394
1888.93,0.983118
1891.34,0.983994
1893.75,0.983616
1896.16,0.983966
1898.58,0.983713
1900.99,0.982635
1903.4,0.983959
1905.81,0.98523
1908.22,0.985539
1910.63,0.985043
1913.04,0.984335
1915.45,0.98588
1917.86,0.986594
1920.27,0.987041
1922.68,0.984386
1925.09,0.984242
1927.5,0.985536
1929.91,0.985913
1932.32,0.989078
1934.73,0.988849
1937.14,0.987825
1939.56,0.988855
1941.97,0.98936
1944.38,0.98954
1946.79,0.990534
1949.2,0.992256
1951.61,0.991717
1954.02,0.9907
1956.43,0.990891
1958.84,0.990596
1961.25,0.990196
1963.66,0.991405
1966.07,0.993889
1968.48,0.994485
1970.89,0.993865
1973.3,0.994631
1975.71,0.997148
1978.12,0.999989
1980.54,0.998706
1982.95,0.994955
1985.36,0.992406
1987.77,0.991151
1990.18,0.986355
1992.59,0.985627
1995,0.983128
1997.41,0.981819
1999.82,0.979935
2002.23,0.978996
2004.64,0.979801
2007.05,0.981392
2009.46,0.982621
2011.87,0.9807
2014.28,0.98155
2016.69,0.979945
2019.1,0.971677
2021.52,0.970806
2023.93,0.968289
2026.34,0.968723
2028.75,0.970426
2031.16,0.969674
2033.57,0.967919
2035.98,0.964124
2038.39,0.96409
2040.8,0.965613
2043.21,0.963255
2045.62,0.965191
2048.03,0.962713
2050.44,0.958142
2052.85,0.958896
2055.26,0.962054
2057.67,0.960504
2060.08,0.967203
2062.5,0.967401
2064.91,0.963555
2067.32,0.964309
2069.73,0.964336
2072.14,0.963906
2074.55,0.966293
2076.96,0.963635
2079.37,0.961763
2081.78,0.965463
2084.19,0.96863
2086.6,0.968431
2089.01,0.968434
2091.42,0.969416
2093.83,0.969635
2096.24,0.970074
2098.65,0.968941
2101.06,0.969837
2103.48,0.971048
2105.89,0.967896
2108.3,0.96847
2110.71,0.972135
2113.12,0.97383
2115.53,0.971949
2117.94,0.97314
2120.35,0.973274
2122.76,0.971674
2125.17,0.974534
2127.58,0.976187
2129.99,0.973972
2132.4,0.974128
2134.81,0.97525
2137.22,0.975058
2139.63,0.977099
2142.04,0.976614
2144.45,0.97732
2146.87,0.979422
2149.28,0.977868
2151.69,0.978973
2154.1,0.982814
2156.51,0.982507
2158.92,0.978103
2161.33,0.975237
2163.74,0.976293
2166.15,0.978376
2168.56,0.976986
2170.97,0.971332
2173.38,0.976355
2175.79,0.972956
2178.2,0.976205
2180.61,0.976063
2183.02,0.970667
2185.43,0.970238
2187.85,0.971607
2190.26,0.975235
2192.67,0.975682
2195.08,0.97099
2197.49,0.963983
2199.9,0.960131
2202.31,0.960437
2204.72,0.962663
2207.13,0.964247
2209.54,0.962474
2211.95,0.961326
2214.36,0.958692
2216.77,0.959123
2219.18,0.960652
2221.59,0.957892
2224,0.956843
2226.41,0.957822
2228.83,0.955583
2231.24,0.956462
2233.65,0.959876
2236.06,0.957316
2238.47,0.957381
2240.88,0.957351
2243.29,0.955698
2245.7,0.955043
2248.11,0.958234
2250.52,0.959099
2252.93,0.957257
2255.34,0.956335
2257.75,0.958442
2260.16,0.960801
2262.57,0.960453
2264.98,0.961614
2267.39,0.961091
2269.81,0.958743
2272.22,0.958207
2274.63,0.958868
2277.04,0.961698
2279.45,0.961644
2281.86,0.96148
2284.27,0.960852
2286.68,0.962651
2289.09,0.963412
2291.5,0.962166
2293.91,0.963418
2296.32,0.965813
2298.73,0.96609
2301.14,0.964615
2303.55,0.964076
2305.96,0.9646
2308.37,0.966489
2310.79,0.966715
2313.2,0.966114
2315.61,0.966304
2318.02,0.965535
2320.43,0.965349
2322.84,0.964262
2325.25,0.962498
2327.66,0.958951
2330.07,0.956916
2332.48,0.957164
2334.89,0.957124
2337.3,0.957066
2339.71,0.955973
2342.12,0.952455
2344.53,0.949002
2346.94,0.948722
2349.35,0.948484
2351.77,0.948042
2354.18,0.947893
2356.59,0.948307
2359,0.95132
2361.41,0.956416
2363.82,0.954477
2366.23,0.948842
2368.64,0.943417
2371.05,0.939653
2373.46,0.938884
2375.87,0.937845
2378.28,0.940572
2380.69,0.943847
2383.1,0.948505
2385.51,0.950655
2387.92,0.952753
2390.33,0.958031
2392.75,0.963205
2395.16,0.965809
2397.57,0.96795
2399.98,0.969058
2402.39,0.969854
2404.8,0.970631
2407.21,0.971655
2409.62,0.971449
2412.03,0.970326
2414.44,0.97014
2416.85,0.970004
2419.26,0.970129
2421.67,0.971119
2424.08,0.97124
2426.49,0.970899
2428.9,0.970851
2431.31,0.972027
2433.72,0.972989
2436.14,0.973653
2438.55,0.972451
2440.96,0.971245
2443.37,0.971945
2445.78,0.972365
2448.19,0.972296
2450.6,0.973479
2453.01,0.973804
2455.42,0.973517
2457.83,0.974097
2460.24,0.974555
2462.65,0.974125
2465.06,0.975332
2467.47,0.975275
2469.88,0.973644
2472.29,0.973042
2474.7,0.972613
2477.12,0.973298
2479.53,0.973679
2481.94,0.974085
2484.35,0.973477
2486.76,0.972437
2489.17,0.971403
2491.58,0.971732
2493.99,0.972747
2496.4,0.972663
2498.81,0.972115
2501.22,0.972386
2503.63,0.972537
2506.04,0.973611
2508.45,0.972897
2510.86,0.972094
2513.27,0.973071
2515.68,0.973635
2518.1,0.972471
2520.51,0.972068
2522.92,0.9723
2525.33,0.972085
2527.74,0.972647
2530.15,0.971483
2532.56,0.971785
2534.97,0.971914
2537.38,0.972434
2539.79,0.972288
2542.2,0.971383
2544.61,0.970032
2547.02,0.968883
2549.43,0.969167
2551.84,0.969375
2554.25,0.968493
2556.66,0.968211
2559.08,0.968771
2561.49,0.967517
2563.9,0.967334
2566.31,0.966473
2568.72,0.96552
2571.13,0.965758
2573.54,0.965723
2575.95,0.966338
2578.36,0.966297
2580.77,0.965379
2583.18,0.964206
2585.59,0.962297
2588,0.96211
2590.41,0.962344
2592.82,0.963223
2595.23,0.963511
2597.64,0.962184
2600.06,0.961851
2602.47,0.961488
2604.88,0.96092
2607.29,0.960336
2609.7,0.960116
2612.11,0.959836
2614.52,0.959231
2616.93,0.958706
2619.34,0.957813
2621.75,0.95703
2624.16,0.958357
2626.57,0.958201
2628.98,0.958347
2631.39,0.958197
2633.8,0.958155
2636.21,0.957223
2638.62,0.956602
2641.04,0.956644
2643.45,0.956155
2645.86,0.956564
2648.27,0.957162
2650.68,0.957201
2653.09,0.957061
2655.5,0.957925
2657.91,0.959074
2660.32,0.958498
2662.73,0.958141
2665.14,0.958048
2667.55,0.958775
2669.96,0.95897
2672.37,0.959171
2674.78,0.958741
2677.19,0.958747
2679.6,0.958749
2682.02,0.958703
2684.43,0.959208
2686.84,0.959321
2689.25,0.959702
2691.66,0.959898
2694.07,0.9595
2696.48,0.959121
2698.89,0.959134
2701.3,0.959421
2703.71,0.959487
2706.12,0.959673
2708.53,0.959611
2710.94,0.959938
2713.35,0.960288
2715.76,0.959719
2718.17,0.95923
2720.58,0.959236
2722.99,0.959257
2725.41,0.958659
2727.82,0.95815
2730.23,0.957691
2732.64,0.957468
2735.05,0.957237
2737.46,0.956621
2739.87,0.955565
2742.28,0.955021
2744.69,0.95454
2747.1,0.953668
2749.51,0.953513
2751.92,0.953114
2754.33,0.951894
2756.74,0.951747
2759.15,0.951085
2761.56,0.950539
2763.97,0.949912
2766.39,0.949355
2768.8,0.949275
2771.21,0.949701
2773.62,0.948992
2776.03,0.948481
2778.44,0.94803
2780.85,0.947336
2783.26,0.946752
2785.67,0.946272
2788.08,0.944942
2790.49,0.944392
2792.9,0.944037
2795.31,0.942786
2797.72,0.941921
2800.13,0.941225
2802.54,0.940292
2804.95,0.938946
2807.37,0.938029
2809.78,0.938222
2812.19,0.937069
2814.6,0.935021
2817.01,0.93384
2819.42,0.932299
2821.83,0.929753
2824.24,0.927962
2826.65,0.924973
2829.06,0.921836
2831.47,0.91967
2833.88,0.916583
2836.29,0.913293
2838.7,0.911037
2841.11,0.908725
2843.52,0.905646
2845.93,0.902163
2848.35,0.897376
2850.76,0.89056
2853.17,0.88097
2855.58,0.868531
2857.99,0.8505
2860.4,0.824849
2862.81,0.792941
2865.22,0.759888
2867.63,0.730904
2870.04,0.708571
2872.45,0.692985
2874.86,0.684265
2877.27,0.680568
2879.68,0.68314
2882.09,0.691478
2884.5,0.703232
2886.91,0.717574
2889.33,0.736396
2891.74,0.757227
2894.15,0.776759
2896.56,0.792175
2898.97,0.803579
2901.38,0.810075
2903.79,0.809107
2906.2,0.803797
2908.61,0.79456
2911.02,0.781595
2913.43,0.768654
2915.84,0.758395
2918.25,0.751126
2920.66,0.743957
2923.07,0.734182
2925.48,0.72165
2927.89,0.706485
2930.31,0.689034
2932.72,0.669595
2935.13,0.648767
2937.54,0.628592
2939.95,0.611009
2942.36,0.596556
2944.77,0.583308
2947.18,0.57413
2949.59,0.570477
2952,0.573466
2954.41,0.584696
2956.82,0.600199
2959.23,0.617786
2961.64,0.639272
2964.05,0.665829
2966.46,0.697626
2968.87,0.729924
2971.29,0.759309
2973.7,0.784298
2976.11,0.804945
2978.52,0.82216
2980.93,0.83738
2983.34,0.852718
2985.75,0.868294
2988.16,0.883918
2990.57,0.898497
2992.98,0.910827
2995.39,0.919643
2997.8,0.926839
3000.21,0.932923
3002.62,0.938224
3005.03,0.94129
3007.44,0.943289
3009.85,0.945592
3012.27,0.947369
3014.68,0.948035
3017.09,0.949488
3019.5,0.949827
3021.91,0.949803
3024.32,0.949177
3026.73,0.947865
3029.14,0.946848
3031.55,0.946427
3033.96,0.945227
3036.37,0.944486
3038.78,0.945217
3041.19,0.944248
3043.6,0.942772
3046.01,0.940515
3048.42,0.93719
3050.83,0.934561
3053.24,0.931585
3055.66,0.927741
3058.07,0.922461
3060.48,0.916665
3062.89,0.911015
3065.3,0.905643
3067.71,0.898909
3070.12,0.892293
3072.53,0.887529
3074.94,0.882946
3077.35,0.87843
3079.76,0.873623
3082.17,0.87001
3084.58,0.866728
3086.99,0.863721
3089.4,0.860234
3091.81,0.858147
3094.22,0.857106
3096.64,0.855946
3099.05,0.855571
3101.46,0.856158
3103.87,0.85754
3106.28,0.859806
3108.69,0.862228
3111.1,0.864836
3113.51,0.867301
3115.92,0.871006
3118.33,0.875813
3120.74,0.880562
3123.15,0.883777
3125.56,0.887386
3127.97,0.89154
3130.38,0.895476
3132.79,0.89947
3135.2,0.903106
3137.62,0.905132
3140.03,0.905992
3142.44,0.907855
3144.85,0.90862
3147.26,0.908569
3149.67,0.909948
3152.08,0.911628
3154.49,0.91179
3156.9,0.911684
3159.31,0.910653
3161.72,0.910438
3164.13,0.909169
3166.54,0.907087
3168.95,0.906142
3171.36,0.904787
3173.77,0.902781
3176.18,0.901429
3178.6,0.900152
3181.01,0.896852
3183.42,0.892861
3185.83,0.889034
3188.24,0.885094
3190.65,0.880147
3193.06,0.878578
3195.47,0.874759
3197.88,0.869268
3200.29,0.864642
3202.7,0.860304
3205.11,0.856225
3207.52,0.852827
3209.93,0.849999
3212.34,0.846831
3214.75,0.84386
3217.16,0.841002
3219.58,0.83885
3221.99,0.835931
3224.4,0.833368
3226.81,0.829923
3229.22,0.82662
3231.63,0.825433
3234.04,0.821348
3236.45,0.818129
3238.86,0.813525
3241.27,0.808786
3243.68,0.802642
3246.09,0.796984
3248.5,0.789852
3250.91,0.781865
3253.32,0.775096
3255.73,0.767028
3258.14,0.757942
3260.56,0.748208
3262.97,0.738128
3265.38,0.725463
3267.79,0.714857
3270.2,0.704312
3272.61,0.693859
3275.02,0.682457
3277.43,0.669531
3279.84,0.655846
3282.25,0.643161
3284.66,0.630687
3287.07,0.618122
3289.48,0.604347
3291.89,0.593661
3294.3,0.58275
3296.71,0.569483
3299.12,0.556451
3301.54,0.544522
3303.95,0.533246
3306.36,0.521661
3308.77,0.512144
3311.18,0.506761
3313.59,0.504944
3316,0.50832
3318.41,0.520901
3320.82,0.536318
3323.23,0.55353
3325.64,0.574709
3328.05,0.598271
3330.46,0.618823
3332.87,0.637411
3335.28,0.656176
3337.69,0.673452
3340.1,0.691853
3342.51,0.708071
3344.93,0.722298
3347.34,0.73886
3349.75,0.754776
3352.16,0.766788
3354.57,0.779141
3356.98,0.791409
3359.39,0.801449
3361.8,0.810016
3364.21,0.818584
3366.62,0.827471
3369.03,0.834629
3371.44,0.841056
3373.85,0.846066
3376.26,0.850849
3378.67,0.856506
3381.08,0.863976
3383.49,0.867286
3385.91,0.870765
3388.32,0.874915
3390.73,0.879042
3393.14,0.882258
3395.55,0.885655
3397.96,0.887167
3400.37,0.888659
3402.78,0.890507
3405.19,0.89413
3407.6,0.897292
3410.01,0.899149
3412.42,0.900566
3414.83,0.901323
3417.24,0.901401
3419.65,0.900971
3422.06,0.901961
3424.47,0.903267
3426.89,0.904246
3429.3,0.905762
3431.71,0.906388
3434.12,0.905484
3436.53,0.905708
3438.94,0.906188
3441.35,0.907631
3443.76,0.910615
3446.17,0.910857
3448.58,0.911029
3450.99,0.911094
3453.4,0.913085
3455.81,0.912651
3458.22,0.911283
3460.63,0.912849
3463.04,0.912929
3465.45,0.913001
3467.87,0.915207
3470.28,0.917076
3472.69,0.917067
3475.1,0.914452
3477.51,0.913573
3479.92,0.916142
3482.33,0.917621
3484.74,0.918422
3487.15,0.918629
3489.56,0.918436
3491.97,0.918122
3494.38,0.91804
3496.79,0.918471
3499.2,0.918327
3501.61,0.918552
3504.02,0.919658
3506.43,0.920675
3508.85,0.921551
3511.26,0.921726
3513.67,0.923664
3516.08,0.924117
3518.49,0.923871
3520.9,0.925188
3523.31,0.926081
3525.72,0.927315
3528.13,0.927777
3530.54,0.92834
3532.95,0.930915
3535.36,0.93269
3537.77,0.934105
3540.18,0.934226
3542.59,0.932865
3545,0.935446
3547.41,0.937208
3549.83,0.938169
3552.24,0.940968
3554.65,0.942293
3557.06,0.943759
3559.47,0.941768
3561.88,0.941904
3564.29,0.945689
3566.7,0.948321
3569.11,0.950039
3571.52,0.950025
3573.93,0.95175
3576.34,0.954138
3578.75,0.954172
3581.16,0.954129
3583.57,0.954916
3585.98,0.956122
3588.39,0.959398
3590.81,0.961346
3593.22,0.961677
3595.63,0.960291
3598.04,0.961999
3600.45,0.963223
3602.86,0.962899
3605.27,0.963343
3607.68,0.962602
3610.09,0.964065
3612.5,0.964225
3614.91,0.964873
3617.32,0.965431
3619.73,0.967264
3622.14,0.968368
3624.55,0.967092
3626.96,0.967471
3629.37,0.970969
3631.78,0.973042
3634.2,0.972159
3636.61,0.972256
3639.02,0.97306
3641.43,0.973302
3643.84,0.972476
3646.25,0.971671
3648.66,0.970064
3651.07,0.972809
3653.48,0.975823
3655.89,0.977614
3658.3,0.975427
3660.71,0.977151
3663.12,0.980179
3665.53,0.976841
3667.94,0.973608
3670.35,0.974017
3672.76,0.975412
3675.18,0.97944
3677.59,0.981313
3680,0.980808
3682.41,0.978632
3684.82,0.976941
3687.23,0.977553
3689.64,0.977647
3692.05,0.978648
3694.46,0.980974
3696.87,0.982515
3699.28,0.982185
3701.69,0.983709
3704.1,0.982135
3706.51,0.980078
3708.92,0.980724
3711.33,0.980498
3713.74,0.981138
3716.16,0.983015
3718.57,0.984538
3720.98,0.986413
3723.39,0.98561
3725.8,0.982514
3728.21,0.980911
3730.62,0.981018
3733.03,0.984113
3735.44,0.985732
3737.85,0.984818
3740.26,0.982505
3742.67,0.979665
3745.08,0.980076
3747.49,0.981582
3749.9,0.983313
3752.31,0.982655
3754.72,0.981825
3757.14,0.982164
3759.55,0.982189
3761.96,0.980952
3764.37,0.98
3766.78,0.979197
3769.19,0.980369
3771.6,0.981857
3774.01,0.981689
3776.42,0.981894
3778.83,0.981874
3781.24,0.981717
3783.65,0.983481
3786.06,0.983724
3788.47,0.981109
3790.88,0.980687
3793.29,0.981604
3795.7,0.983211
3798.12,0.983422
3800.53,0.981216
3802.94,0.982922
3805.35,0.984798
3807.76,0.985394
3810.17,0.984588
3812.58,0.984467
3814.99,0.984009
3817.4,0.98321
3819.81,0.983119
3822.22,0.983572
3824.63,0.985603
3827.04,0.986959
3829.45,0.98987
3831.86,0.98817
3834.27,0.982636
3836.68,0.981651
3839.1,0.984364
3841.51,0.985577
3843.92,0.987201
3846.33,0.985604
3848.74,0.985605
3851.15,0.985438
3853.56,0.98567
3855.97,0.986458
3858.38,0.986873
3860.79,0.98645
3863.2,0.985712
3865.61,0.987603
3868.02,0.986773
3870.43,0.984157
3872.84,0.983089
3875.25,0.984119
3877.66,0.983738
3880.08,0.984798
3882.49,0.986878
3884.9,0.986136
3887.31,0.983266
3889.72,0.983643
3892.13,0.984372
3894.54,0.983849
3896.95,0.985762
3899.36,0.986115
3901.77,0.986556
3904.18,0.986182
3906.59,0.984017
3909,0.982468
3911.41,0.982922
3913.82,0.985127
3916.23,0.986332
3918.64,0.985481
3921.05,0.983294
3923.47,0.983099
3925.88,0.984838
3928.29,0.984589
3930.7,0.98516
3933.11,0.986204
3935.52,0.985766
3937.93,0.984318
3940.34,0.982522
3942.75,0.983055
3945.16,0.984114
3947.57,0.985455
3949.98,0.98555
3952.39,0.984864
3954.8,0.983928
3957.21,0.984171
3959.62,0.984655
3962.03,0.984621
3964.45,0.985114
3966.86,0.984361
3969.27,0.985823
3971.68,0.985331
3974.09,0.985927
3976.5,0.988535
3978.91,0.988591
3981.32,0.985863
3983.73,0.986084
3986.14,0.985312
3988.55,0.985913
3990.96,0.98629
3993.37,0.986922
3995.78,0.987156
3998.19,0.986138
4000.12,0.986765