File: FTIR_data/Nylon 6,6.csv
449.815,0.681505
452.225,0.667271
454.636,0.6747
457.047,0.683187
459.457,0.675688
461.868,0.664729
464.278,0.666042
466.689,0.658724
469.1,0.641971
471.51,0.630799
473.921,0.632922
476.331,0.639646
478.742,0.633711
481.152,0.633674
483.563,0.622004
485.974,0.608272
488.384,0.59566
490.795,0.599876
493.205,0.611832
495.616,0.597332
498.027,0.564875
500.437,0.56825
502.848,0.572782
505.258,0.572671
507.669,0.563509
510.079,0.551415
512.49,0.543772
514.901,0.550592
517.311,0.56222
519.722,0.55998
522.132,0.541459
524.543,0.542462
526.954,0.530279
529.364,0.520693
531.775,0.498382
534.185,0.497952
536.596,0.505548
539.006,0.509522
541.417,0.516424
543.828,0.523002
546.238,0.523191
548.649,0.52127
551.059,0.516446
553.47,0.511334
555.881,0.509433
558.291,0.497494
560.702,0.486118
563.112,0.467645
565.523,0.452375
567.933,0.433987
570.344,0.411389
572.755,0.381433
575.165,0.356791
577.576,0.333614
579.986,0.32482
582.397,0.331613
584.808,0.36079
587.218,0.393199
589.629,0.425985
592.039,0.452031
594.45,0.472159
596.86,0.488718
599.271,0.500818
601.682,0.50893
604.092,0.516372
606.503,0.526424
608.913,0.53261
611.324,0.53778
613.735,0.538408
616.145,0.538252
618.556,0.543677
620.966,0.546503
623.377,0.548457
625.787,0.547542
628.198,0.54955
630.609,0.547916
633.019,0.546007
635.43,0.543769
637.84,0.541706
640.251,0.53913
642.662,0.532722
645.072,0.526488
647.483,0.523115
649.893,0.514374
652.304,0.503477
654.714,0.495643
657.125,0.486286
659.536,0.473154
661.946,0.459656
664.357,0.447551
666.767,0.433617
669.178,0.419703
671.589,0.398948
673.999,0.38674
676.41,0.382442
678.82,0.373203
681.231,0.362776
683.641,0.355145
686.052,0.354329
688.463,0.354631
690.873,0.361484
693.284,0.372088
695.694,0.389227
698.105,0.410882
700.516,0.432503
702.926,0.447983
705.337,0.464092
707.747,0.478708
710.158,0.487913
712.568,0.496697
714.979,0.50422
717.39,0.508616
719.8,0.513218
722.211,0.515757
724.621,0.512847
727.032,0.511847
729.443,0.506751
731.853,0.507216
734.264,0.52063
736.674,0.547287
739.085,0.580615
741.495,0.610887
743.906,0.637588
746.317,0.657981
748.727,0.668836
751.138,0.672874
753.548,0.677867
755.959,0.683916
758.37,0.690015
760.78,0.696309
763.191,0.703797
765.601,0.71151
768.012,0.717182
770.422,0.723165
772.833,0.729668
775.244,0.736243
777.654,0.743036
780.065,0.748002
782.475,0.753408
784.886,0.758941
787.297,0.764269
789.707,0.767445
792.118,0.770996
794.528,0.773207
796.939,0.776781
799.349,0.780627
801.76,0.784647
804.171,0.790446
806.581,0.799088
808.992,0.803874
811.402,0.808044
813.813,0.812302
816.224,0.817202
818.634,0.819665
821.045,0.823702
823.455,0.826333
825.866,0.827335
828.276,0.831266
830.687,0.834283
833.098,0.834952
835.508,0.836587
837.919,0.839302
840.329,0.840888
842.74,0.84314
845.151,0.84217
847.561,0.841915
849.972,0.843407
852.382,0.84467
854.793,0.846934
857.203,0.847936
859.614,0.848434
862.025,0.851241
864.435,0.852451
866.846,0.854674
869.256,0.855578
871.667,0.853827
874.078,0.853091
876.488,0.85219
878.899,0.851038
881.309,0.850331
883.72,0.851241
886.13,0.850634
888.541,0.849025
890.952,0.848923
893.362,0.848859
895.773,0.847916
898.183,0.847206
900.594,0.843926
903.005,0.836964
905.415,0.825015
907.826,0.81178
910.236,0.801187
912.647,0.803739
915.057,0.813894
917.468,0.81712
919.879,0.813461
922.289,0.807799
924.7,0.801426
927.11,0.794437
929.521,0.785533
931.932,0.770875
934.342,0.749326
936.753,0.724781
939.163,0.709347
941.574,0.71931
943.984,0.751425
946.395,0.785468
948.806,0.806966
951.216,0.819882
953.627,0.828386
956.037,0.834792
958.448,0.84106
960.859,0.844881
963.269,0.846727
965.68,0.849579
968.09,0.851326
970.501,0.85319
972.911,0.854574
975.322,0.85456
977.733,0.853807
980.143,0.853321
982.554,0.853232
984.964,0.851926
987.375,0.849975
989.786,0.846119
992.196,0.842847
994.607,0.842114
997.017,0.841042
999.428,0.838476
1001.84,0.836061
1004.25,0.83441
1006.66,0.831622
1009.07,0.829079
1011.48,0.82681
1013.89,0.824799
1016.3,0.822724
1018.71,0.822008
1021.12,0.821983
1023.53,0.823561
1025.94,0.822612
1028.35,0.820715
1030.77,0.820032
1033.18,0.820072
1035.59,0.817516
1038,0.815543
1040.41,0.813184
1042.82,0.809444
1045.23,0.806101
1047.64,0.803703
1050.05,0.804521
1052.46,0.807464
1054.87,0.809607
1057.28,0.812026
1059.69,0.812432
1062.1,0.811267
1064.51,0.810396
1066.92,0.808699
1069.33,0.808844
1071.75,0.812649
1074.16,0.817256
1076.57,0.823084
1078.98,0.828326
1081.39,0.829733
1083.8,0.829775
1086.21,0.828213
1088.62,0.824495
1091.03,0.819756
1093.44,0.815511
1095.85,0.812613
1098.26,0.808641
1100.67,0.806352
1103.08,0.805739
1105.49,0.804547
1107.9,0.8042
1110.31,0.803429
1112.73,0.802956
1115.14,0.801621
1117.55,0.799837
1119.96,0.799669
1122.37,0.798372
1124.78,0.795644
1127.19,0.791474
1129.6,0.784608
1132.01,0.778288
1134.42,0.770638
1136.83,0.75807
1139.24,0.739772
1141.65,0.715738
1144.06,0.69434
1146.47,0.686421
1148.88,0.686174
1151.29,0.687203
1153.71,0.690724
1156.12,0.700337
1158.53,0.716039
1160.94,0.734214
1163.35,0.746173
1165.76,0.750969
1168.17,0.749886
1170.58,0.745349
1172.99,0.734348
1175.4,0.718339
1177.81,0.697518
1180.22,0.667551
1182.63,0.636149
1185.04,0.614663
1187.45,0.611006
1189.86,0.621702
1192.27,0.63341
1194.69,0.635139
1197.1,0.620099
1199.51,0.588009
1201.92,0.546954
1204.33,0.522989
1206.74,0.537977
1209.15,0.580225
1211.56,0.623701
1213.97,0.654032
1216.38,0.671881
1218.79,0.679356
1221.2,0.682228
1223.61,0.682258
1226.02,0.677089
1228.43,0.665756
1230.84,0.657034
1233.25,0.655653
1235.67,0.652089
1238.08,0.640829
1240.49,0.629525
1242.9,0.619659
1245.31,0.613242
1247.72,0.609585
1250.13,0.603618
1252.54,0.597337
1254.95,0.591197
1257.36,0.582692
1259.77,0.573076
1262.18,0.56384
1264.59,0.554599
1267,0.541354
1269.41,0.524126
1271.82,0.505037
1274.23,0.485439
1276.64,0.467693
1279.06,0.455802
1281.47,0.456616
1283.88,0.474516
1286.29,0.507884
1288.7,0.546605
1291.11,0.58028
1293.52,0.605705
1295.93,0.624309
1298.34,0.636878
1300.75,0.644584
1303.16,0.650457
1305.57,0.653827
1307.98,0.655644
1310.39,0.658635
1312.8,0.662762
1315.21,0.668345
1317.62,0.675469
1320.04,0.682433
1322.45,0.687909
1324.86,0.691793
1327.27,0.694697
1329.68,0.694598
1332.09,0.689706
1334.5,0.686887
1336.91,0.684787
1339.32,0.682644
1341.73,0.678452
1344.14,0.67442
1346.55,0.670641
1348.96,0.664959
1351.37,0.657849
1353.78,0.65107
1356.19,0.641733
1358.6,0.631206
1361.02,0.619126
1363.43,0.606955
1365.84,0.596678
1368.25,0.585674
1370.66,0.575425
1373.07,0.56495
1375.48,0.555681
1377.89,0.551101
1380.3,0.556175
1382.71,0.573935
1385.12,0.596224
1387.53,0.615059
1389.94,0.631528
1392.35,0.643898
1394.76,0.655731
1397.17,0.668991
1399.58,0.678042
1402,0.688329
1404.41,0.693546
1406.82,0.693623
1409.23,0.690439
1411.64,0.683478
1414.05,0.668755
1416.46,0.641022
1418.87,0.59837
1421.28,0.545318
1423.69,0.500708
1426.1,0.49629
1428.51,0.533793
1430.92,0.559198
1433.33,0.572321
1435.74,0.570469
1438.15,0.559922
1440.56,0.547425
1442.98,0.537862
1445.39,0.535876
1447.8,0.541538
1450.21,0.549174
1452.62,0.554452
1455.03,0.557809
1457.44,0.553171
1459.85,0.54027
1462.26,0.525992
1464.67,0.515533
1467.08,0.487965
1469.49,0.460835
1471.9,0.445489
1474.31,0.464635
1476.72,0.498693
1479.13,0.512196
1481.54,0.503135
1483.96,0.508899
1486.37,0.543853
1488.78,0.589832
1491.19,0.630869
1493.6,0.650213
1496.01,0.64971
1498.42,0.642753
1500.83,0.629845
1503.24,0.609128
1505.65,0.585333
1508.06,0.560242
1510.47,0.533319
1512.88,0.50568
1515.29,0.468819
1517.7,0.428578
1520.11,0.388753
1522.52,0.344336
1524.94,0.302916
1527.35,0.250438
1529.76,0.197257
1532.17,0.140916
1534.58,0.101536
1536.99,0.0616249
1539.4,0.0350026
1541.81,0.0304799
1544.22,0.0434909
1546.63,0.0630918
1549.04,0.0935934
1551.45,0.132956
1553.86,0.171143
1556.27,0.208189
1558.68,0.239912
1561.09,0.274682
1563.5,0.308782
1565.91,0.337625
1568.33,0.381198
1570.74,0.415101
1573.15,0.444643
1575.56,0.481609
1577.97,0.514262
1580.38,0.547238
1582.79,0.572726
1585.2,0.602329
1587.61,0.630618
1590.02,0.647035
1592.43,0.66008
1594.84,0.670578
1597.25,0.673387
1599.66,0.668902
1602.07,0.663006
1604.48,0.652143
1606.89,0.633848
1609.31,0.60679
1611.72,0.569971
1614.13,0.528282
1616.54,0.477608
1618.95,0.42448
1621.36,0.371802
1623.77,0.315419
1626.18,0.241485
1628.59,0.175045
1631,0.130868
1633.41,0.0808766
1635.82,0.0445977
1638.23,0.0165705
1640.64,0.00304348
1643.05,0.00093207
1645.46,0.0189358
1647.87,0.0519439
1650.29,0.101732
1652.7,0.159818
1655.11,0.218399
1657.52,0.286728
1659.93,0.339246
1662.34,0.398995
1664.75,0.462288
1667.16,0.504185
1669.57,0.550658
1671.98,0.601321
1674.39,0.648432
1676.8,0.684998
1679.21,0.723911
1681.62,0.760495
1684.03,0.788009
1686.44,0.812445
1688.85,0.833705
1691.27,0.85392
1693.68,0.875233
1696.09,0.889566
1698.5,0.896869
1700.91,0.907602
1703.32,0.907974
1705.73,0.907
1708.14,0.908921
1710.55,0.915489
1712.96,0.916551
1715.37,0.915173
1717.78,0.918875
1720.19,0.919532
1722.6,0.917625
1725.01,0.916226
1727.42,0.920318
1729.83,0.925983
1732.25,0.924448
1734.66,0.925315
1737.07,0.926083
1739.48,0.92533
1741.89,0.921387
1744.3,0.923039
1746.71,0.926344
1749.12,0.927866
1751.53,0.929311
1753.94,0.928727
1756.35,0.928199
1758.76,0.926297
1761.17,0.92832
1763.58,0.929143
1765.99,0.930007
1768.4,0.934889
1770.81,0.935092
1773.23,0.935535
1775.64,0.93251
1778.05,0.933305
1780.46,0.933637
1782.87,0.933439
1785.28,0.936001
1787.69,0.937324
1790.1,0.938
1792.51,0.934916
1794.92,0.933928
1797.33,0.936775
1799.74,0.936761
1802.15,0.937243
1804.56,0.937844
1806.97,0.938834
1809.38,0.937535
1811.79,0.936955
1814.21,0.936136
1816.62,0.937462
1819.03,0.938615
1821.44,0.940682
1823.85,0.938377
1826.26,0.936789
1828.67,0.939922
1831.08,0.940352
1833.49,0.93626
1835.9,0.935991
1838.31,0.937873
1840.72,0.939002
1843.13,0.936894
1845.54,0.935666
1847.95,0.938777
1850.36,0.937689
1852.77,0.935219
1855.18,0.935701
1857.6,0.934993
1860.01,0.934142
1862.42,0.935862
1864.83,0.937316
1867.24,0.937849
1869.65,0.936193
1872.06,0.935633
1874.47,0.939541
1876.88,0.939875
1879.29,0.936196
1881.7,0.935852
1884.11,0.938334
1886.52,0.938139
1888.93,0.936405
1891.34,0.935631
1893.75,0.938627
1896.16,0.938431
1898.58,0.938049
1900.99,0.939998
1903.4,0.936134
1905.81,0.933512
1908.22,0.936831
1910.63,0.937434
1913.04,0.934104
1915.45,0.937258
1917.86,0.940191
1920.27,0.936547
1922.68,0.934342
1925.09,0.932639
1927.5,0.932797
1929.91,0.936447
1932.32,0.934668
1934.73,0.933023
1937.14,0.932559
1939.56,0.931291
1941.97,0.92936
1944.38,0.930821
1946.79,0.932836
1949.2,0.929815
1951.61,0.928199
1954.02,0.932012
1956.43,0.931385
1958.84,0.928921
1961.25,0.931938
1963.66,0.934583
1966.07,0.931691
1968.48,0.935033
1970.89,0.932674
1973.3,0.924326
1975.71,0.921565
1978.12,0.931576
1980.54,0.93107
1982.95,0.922368
1985.36,0.918772
1987.77,0.921974
1990.18,0.921681
1992.59,0.919434
1995,0.918296
1997.41,0.92706
1999.82,0.925845
2002.23,0.927326
2004.64,0.926235
2007.05,0.926556
2009.46,0.931501
2011.87,0.93189
2014.28,0.935745
2016.69,0.930656
2019.1,0.924883
2021.52,0.93117
2023.93,0.939678
2026.34,0.943831
2028.75,0.943868
2031.16,0.935119
2033.57,0.928737
2035.98,0.9233
2038.39,0.921882
2040.8,0.92898
2043.21,0.943197
2045.62,0.94238
2048.03,0.930095
2050.44,0.928307
2052.85,0.929565
2055.26,0.932878
2057.67,0.938483
2060.08,0.938908
2062.5,0.941156
2064.91,0.942432
2067.32,0.936616
2069.73,0.939766
2072.14,0.94453
2074.55,0.941799
2076.96,0.940272
2079.37,0.943181
2081.78,0.944309
2084.19,0.942283
2086.6,0.942269
2089.01,0.945231
2091.42,0.946101
2093.83,0.946291
2096.24,0.94237
2098.65,0.936239
2101.06,0.935813
2103.48,0.94007
2105.89,0.94337
2108.3,0.941018
2110.71,0.937028
2113.12,0.9355
2115.53,0.9364
2117.94,0.938691
2120.35,0.94007
2122.76,0.938374
2125.17,0.935274
2127.58,0.937284
2129.99,0.936765
2132.4,0.938035
2134.81,0.941243
2137.22,0.947173
2139.63,0.950117
2142.04,0.952222
2144.45,0.952481
2146.87,0.950224
2149.28,0.95078
2151.69,0.957745
2154.1,0.962388
2156.51,0.959739
2158.92,0.964666
2161.33,0.968355
2163.74,0.978474
2166.15,0.98537
2168.56,0.991264
2170.97,1
2173.38,0.996499
2175.79,0.984279
2178.2,0.974689
2180.61,0.980015
2183.02,0.973499
2185.43,0.974008
2187.85,0.968654
2190.26,0.976491
2192.67,0.97806
2195.08,0.96991
2197.49,0.971104
2199.9,0.970226
2202.31,0.965453
2204.72,0.963999
2207.13,0.962155
2209.54,0.964497
2211.95,0.970025
2214.36,0.971672
2216.77,0.974383
2219.18,0.971284
2221.59,0.96656
2224,0.959878
2226.41,0.95676
2228.83,0.959397
2231.24,0.961473
2233.65,0.959074
2236.06,0.955215
2238.47,0.951123
2240.88,0.950383
2243.29,0.958206
2245.7,0.956921
2248.11,0.952723
2250.52,0.951933
2252.93,0.95875
2255.34,0.955618
2257.75,0.955698
2260.16,0.958686
2262.57,0.957896
2264.98,0.959943
2267.39,0.958137
2269.81,0.956437
2272.22,0.958197
2274.63,0.956728
2277.04,0.953864
2279.45,0.952225
2281.86,0.948702
2284.27,0.94596
2286.68,0.942186
2289.09,0.939877
2291.5,0.941061
2293.91,0.943038
2296.32,0.943997
2298.73,0.941916
2301.14,0.940309
2303.55,0.938341
2305.96,0.937682
2308.37,0.935556
2310.79,0.935187
2313.2,0.933542
2315.61,0.932183
2318.02,0.928382
2320.43,0.925997
2322.84,0.92545
2325.25,0.922467
2327.66,0.920216
2330.07,0.91515
2332.48,0.910794
2334.89,0.907227
2337.3,0.904845
2339.71,0.904575
2342.12,0.903589
2344.53,0.904176
2346.94,0.904412
2349.35,0.90559
2351.77,0.90775
2354.18,0.907431
2356.59,0.908898
2359,0.914242
2361.41,0.91672
2363.82,0.909559
2366.23,0.900029
2368.64,0.893708
2371.05,0.890053
2373.46,0.895573
2375.87,0.899455
2378.28,0.901537
2380.69,0.904453
2383.1,0.906676
2385.51,0.912051
2387.92,0.918971
2390.33,0.923265
2392.75,0.927353
2395.16,0.934427
2397.57,0.937143
2399.98,0.936058
2402.39,0.938307
2404.8,0.9414
2407.21,0.941463
2409.62,0.941975
2412.03,0.94503
2414.44,0.94841
2416.85,0.948162
2419.26,0.948256
2421.67,0.950294
2424.08,0.949482
2426.49,0.948332
2428.9,0.948302
2431.31,0.947123
2433.72,0.946775
2436.14,0.946812
2438.55,0.945905
2440.96,0.944738
2443.37,0.941691
2445.78,0.941079
2448.19,0.942421
2450.6,0.94126
2453.01,0.939264
2455.42,0.941053
2457.83,0.941432
2460.24,0.941363
2462.65,0.941034
2465.06,0.941684
2467.47,0.945738
2469.88,0.947885
2472.29,0.946836
2474.7,0.947609
2477.12,0.946037
2479.53,0.944025
2481.94,0.943637
2484.35,0.943982
2486.76,0.944405
2489.17,0.945851
2491.58,0.945951
2493.99,0.945062
2496.4,0.946733
2498.81,0.946051
2501.22,0.94718
2503.63,0.947131
2506.04,0.947019
2508.45,0.947732
2510.86,0.947372
2513.27,0.94775
2515.68,0.947546
2518.1,0.947296
2520.51,0.947075
2522.92,0.947333
2525.33,0.94642
2527.74,0.946244
2530.15,0.946912
2532.56,0.946671
2534.97,0.946078
2537.38,0.943725
2539.79,0.944596
2542.2,0.945592
2544.61,0.944043
2547.02,0.943306
2549.43,0.942824
2551.84,0.942671
2554.25,0.94367
2556.66,0.941639
2559.08,0.940643
2561.49,0.94293
2563.9,0.942429
2566.31,0.939804
2568.72,0.940461
2571.13,0.940905
2573.54,0.940057
2575.95,0.940389
2578.36,0.942112
2580.77,0.942694
2583.18,0.94035
2585.59,0.939191
2588,0.94014
2590.41,0.938745
2592.82,0.937752
2595.23,0.939616
2597.64,0.938279
2600.06,0.93749
2602.47,0.937222
2604.88,0.937076
2607.29,0.935814
2609.7,0.936045
2612.11,0.936268
2614.52,0.935812
2616.93,0.936247
2619.34,0.935506
2621.75,0.934111
2624.16,0.934503
2626.57,0.934078
2628.98,0.934334
2631.39,0.935205
2633.8,0.934941
2636.21,0.934145
2638.62,0.932735
2641.04,0.93278
2643.45,0.932137
2645.86,0.93078
2648.27,0.929462
2650.68,0.928158
2653.09,0.927019
2655.5,0.926985
2657.91,0.926865
2660.32,0.926445
2662.73,0.926521
2665.14,0.926066
2667.55,0.925546
2669.96,0.925337
2672.37,0.925514
2674.78,0.925459
2677.19,0.925687
2679.6,0.925139
2682.02,0.925377
2684.43,0.925866
2686.84,0.925957
2689.25,0.925366
2691.66,0.924208
2694.07,0.923711
2696.48,0.923611
2698.89,0.922745
2701.3,0.922077
2703.71,0.922209
2706.12,0.922935
2708.53,0.922341
2710.94,0.921625
2713.35,0.921488
2715.76,0.921212
2718.17,0.921302
2720.58,0.921446
2722.99,0.920995
2725.41,0.919958
2727.82,0.919597
2730.23,0.920136
2732.64,0.919786
2735.05,0.919196
2737.46,0.919172
2739.87,0.918922
2742.28,0.917568
2744.69,0.916915
2747.1,0.916754
2749.51,0.916458
2751.92,0.915039
2754.33,0.914772
2756.74,0.914314
2759.15,0.913872
2761.56,0.914105
2763.97,0.91378
2766.39,0.913351
2768.8,0.912276
2771.21,0.911561
2773.62,0.911074
2776.03,0.910955
2778.44,0.910665
2780.85,0.909955
2783.26,0.909911
2785.67,0.908878
2788.08,0.907403
2790.49,0.907207
2792.9,0.906938
2795.31,0.906062
2797.72,0.905285
2800.13,0.904395
2802.54,0.903131
2804.95,0.901642
2807.37,0.900646
2809.78,0.899081
2812.19,0.896679
2814.6,0.895952
2817.01,0.894312
2819.42,0.892435
2821.83,0.888925
2824.24,0.887207
2826.65,0.884855
2829.06,0.88228
2831.47,0.878978
2833.88,0.875736
2836.29,0.874538
2838.7,0.870358
2841.11,0.866347
2843.52,0.863665
2845.93,0.860408
2848.35,0.856017
2850.76,0.849635
2853.17,0.84212
2855.58,0.829685
2857.99,0.812608
2860.4,0.787905
2862.81,0.753585
2865.22,0.714508
2867.63,0.683712
2870.04,0.664024
2872.45,0.649376
2874.86,0.642414
2877.27,0.646592
2879.68,0.657771
2882.09,0.671624
2884.5,0.686209
2886.91,0.698052
2889.33,0.709331
2891.74,0.722782
2894.15,0.738689
2896.56,0.753209
2898.97,0.765665
2901.38,0.774217
2903.79,0.777172
2906.2,0.774578
2908.61,0.768419
2911.02,0.758847
2913.43,0.745331
2915.84,0.73089
2918.25,0.715145
2920.66,0.697809
2923.07,0.680556
2925.48,0.66325
2927.89,0.644068
2930.31,0.620993
2932.72,0.598581
2935.13,0.579382
2937.54,0.564063
2939.95,0.55195
2942.36,0.538686
2944.77,0.526551
2947.18,0.520899
2949.59,0.523268
2952,0.535024
2954.41,0.555184
2956.82,0.581081
2959.23,0.608332
2961.64,0.63453
2964.05,0.662574
2966.46,0.692078
2968.87,0.721383
2971.29,0.747188
2973.7,0.768995
2976.11,0.789768
2978.52,0.80678
2980.93,0.819281
2983.34,0.83227
2985.75,0.846316
2988.16,0.858152
2990.57,0.868672
2992.98,0.878239
2995.39,0.886639
2997.8,0.892788
3000.21,0.897906
3002.62,0.901042
3005.03,0.905373
3007.44,0.908336
3009.85,0.909051
3012.27,0.909376
3014.68,0.910018
3017.09,0.90959
3019.5,0.909958
3021.91,0.908284
3024.32,0.907068
3026.73,0.906468
3029.14,0.907083
3031.55,0.904515
3033.96,0.902608
3036.37,0.901448
3038.78,0.899444
3041.19,0.897859
3043.6,0.895414
3046.01,0.894032
3048.42,0.892314
3050.83,0.889111
3053.24,0.886697
3055.66,0.882305
3058.07,0.879235
3060.48,0.876619
3062.89,0.872678
3065.3,0.867866
3067.71,0.861397
3070.12,0.857037
3072.53,0.85292
3074.94,0.847965
3077.35,0.84437
3079.76,0.83983
3082.17,0.836612
3084.58,0.834195
3086.99,0.832771
3089.4,0.831923
3091.81,0.830507
3094.22,0.8273
3096.64,0.827282
3099.05,0.828867
3101.46,0.829453
3103.87,0.830042
3106.28,0.833273
3108.69,0.836649
3111.1,0.839289
3113.51,0.843138
3115.92,0.84587
3118.33,0.84877
3120.74,0.853365
3123.15,0.857464
3125.56,0.860683
3127.97,0.862463
3130.38,0.867379
3132.79,0.870451
3135.2,0.871634
3137.62,0.87389
3140.03,0.875052
3142.44,0.876811
3144.85,0.876817
3147.26,0.87841
3149.67,0.880073
3152.08,0.87873
3154.49,0.877598
3156.9,0.878528
3159.31,0.879097
3161.72,0.87819
3164.13,0.87613
3166.54,0.873519
3168.95,0.873047
3171.36,0.874002
3173.77,0.870293
3176.18,0.870378
3178.6,0.869407
3181.01,0.864855
3183.42,0.862083
3185.83,0.859837
3188.24,0.858482
3190.65,0.853884
3193.06,0.850799
3195.47,0.847209
3197.88,0.842459
3200.29,0.839255
3202.7,0.836861
3205.11,0.833729
3207.52,0.830129
3209.93,0.82698
3212.34,0.822406
3214.75,0.819632
3217.16,0.817281
3219.58,0.815673
3221.99,0.812985
3224.4,0.810968
3226.81,0.807611
3229.22,0.806077
3231.63,0.804424
3234.04,0.800154
3236.45,0.795259
3238.86,0.792181
3241.27,0.788228
3243.68,0.782467
3246.09,0.777159
3248.5,0.77176
3250.91,0.764895
3253.32,0.757842
3255.73,0.752812
3258.14,0.743171
3260.56,0.7329
3262.97,0.723354
3265.38,0.714744
3267.79,0.705428
3270.2,0.695253
3272.61,0.683605
3275.02,0.672002
3277.43,0.660906
3279.84,0.651308
3282.25,0.641811
3284.66,0.62858
3287.07,0.617043
3289.48,0.608682
3291.89,0.599326
3294.3,0.586914
3296.71,0.574798
3299.12,0.564686
3301.54,0.557194
3303.95,0.545377
3306.36,0.532763
3308.77,0.522778
3311.18,0.515447
3313.59,0.510267
3316,0.507293
3318.41,0.509068
3320.82,0.51436
3323.23,0.523615
3325.64,0.540371
3328.05,0.55853
3330.46,0.578615
3332.87,0.600022
3335.28,0.622391
3337.69,0.644028
3340.1,0.664808
3342.51,0.684758
3344.93,0.701658
3347.34,0.719398
3349.75,0.733702
3352.16,0.747325
3354.57,0.759166
3356.98,0.767732
3359.39,0.779107
3361.8,0.789385
3364.21,0.797449
3366.62,0.803514
3369.03,0.811935
3371.44,0.817587
3373.85,0.821067
3376.26,0.826966
3378.67,0.832106
3381.08,0.83862
3383.49,0.842874
3385.91,0.846848
3388.32,0.849773
3390.73,0.851522
3393.14,0.85381
3395.55,0.858157
3397.96,0.860543
3400.37,0.860929
3402.78,0.863782
3405.19,0.868318
3407.6,0.869826
3410.01,0.870808
3412.42,0.870201
3414.83,0.871569
3417.24,0.876095
3419.65,0.873159
3422.06,0.87205
3424.47,0.874189
3426.89,0.874733
3429.3,0.873281
3431.71,0.875532
3434.12,0.87687
3436.53,0.877299
3438.94,0.878474
3441.35,0.878694
3443.76,0.877272
3446.17,0.8784
3448.58,0.880902
3450.99,0.880768
3453.4,0.878834
3455.81,0.879801
3458.22,0.88188
3460.63,0.88134
3463.04,0.882329
3465.45,0.882391
3467.87,0.880768
3470.28,0.883623
3472.69,0.884557
3475.1,0.885409
3477.51,0.883459
3479.92,0.885137
3482.33,0.887049
3484.74,0.888056
3487.15,0.885966
3489.56,0.88608
3491.97,0.890153
3494.38,0.89038
3496.79,0.891152
3499.2,0.89015
3501.61,0.89054
3504.02,0.889303
3506.43,0.88936
3508.85,0.88949
3511.26,0.889562
3513.67,0.890179
3516.08,0.890893
3518.49,0.892082
3520.9,0.894265
3523.31,0.895807
3525.72,0.89602
3528.13,0.898406
3530.54,0.903313
3532.95,0.905496
3535.36,0.903328
3537.77,0.901791
3540.18,0.905472
3542.59,0.906702
3545,0.901673
3547.41,0.905861
3549.83,0.908815
3552.24,0.909981
3554.65,0.913823
3557.06,0.914725
3559.47,0.912872
3561.88,0.913413
3564.29,0.915514
3566.7,0.918331
3569.11,0.918612
3571.52,0.920196
3573.93,0.920837
3576.34,0.921756
3578.75,0.922536
3581.16,0.922805
3583.57,0.920948
3585.98,0.918867
3588.39,0.927189
3590.81,0.935202
3593.22,0.935403
3595.63,0.934082
3598.04,0.930186
3600.45,0.927767
3602.86,0.925353
3605.27,0.925928
3607.68,0.933803
3610.09,0.937251
3612.5,0.93311
3614.91,0.935692
3617.32,0.939411
3619.73,0.932362
3622.14,0.931587
3624.55,0.935146
3626.96,0.938236
3629.37,0.937583
3631.78,0.931083
3634.2,0.935248
3636.61,0.939805
3639.02,0.93959
3641.43,0.940706
3643.84,0.937049
3646.25,0.937059
3648.66,0.941121
3651.07,0.94356
3653.48,0.941717
3655.89,0.944669
3658.3,0.945649
3660.71,0.944384
3663.12,0.942306
3665.53,0.941677
3667.94,0.944134
3670.35,0.947172
3672.76,0.951658
3675.18,0.948775
3677.59,0.953436
3680,0.951675
3682.41,0.94326
3684.82,0.943657
3687.23,0.945731
3689.64,0.945024
3692.05,0.951179
3694.46,0.941165
3696.87,0.950618
3699.28,0.955222
3701.69,0.947316
3704.1,0.943257
3706.51,0.94513
3708.92,0.947779
3711.33,0.950703
3713.74,0.948642
3716.16,0.949376
3718.57,0.946519
3720.98,0.9426
3723.39,0.947927
3725.8,0.944378
3728.21,0.939306
3730.62,0.949508
3733.03,0.956685
3735.44,0.952496
3737.85,0.949968
3740.26,0.951304
3742.67,0.952749
3745.08,0.946163
3747.49,0.944276
3749.9,0.946975
3752.31,0.943778
3754.72,0.950755
3757.14,0.957075
3759.55,0.959894
3761.96,0.950867
3764.37,0.940552
3766.78,0.951272
3769.19,0.947886
3771.6,0.948912
3774.01,0.953981
3776.42,0.948849
3778.83,0.940635
3781.24,0.942084
3783.65,0.944034
3786.06,0.9423
3788.47,0.941196
3790.88,0.944215
3793.29,0.954507
3795.7,0.949406
3798.12,0.940732
3800.53,0.944871
3802.94,0.947272
3805.35,0.949081
3807.76,0.953803
3810.17,0.952584
3812.58,0.95268
3814.99,0.948903
3817.4,0.94783
3819.81,0.947568
3822.22,0.945051
3824.63,0.95323
3827.04,0.953047
3829.45,0.951991
3831.86,0.944666
3834.27,0.939563
3836.68,0.938807
3839.1,0.942379
3841.51,0.941042
3843.92,0.95537
3846.33,0.945844
3848.74,0.943834
3851.15,0.942208
3853.56,0.940914
3855.97,0.94061
3858.38,0.944007
3860.79,0.950737
3863.2,0.951466
3865.61,0.947729
3868.02,0.944686
3870.43,0.940923
3872.84,0.93808
3875.25,0.951569
3877.66,0.953619
3880.08,0.946063
3882.49,0.943971
3884.9,0.944486
3887.31,0.945569
3889.72,0.940953
3892.13,0.9457
3894.54,0.949608
3896.95,0.950228
3899.36,0.945311
3901.77,0.943282
3904.18,0.949506
3906.59,0.942219
3909,0.939642
3911.41,0.94563
3913.82,0.951643
3916.23,0.949048
3918.64,0.940923
3921.05,0.942225
3923.47,0.946564
3925.88,0.94253
3928.29,0.943114
3930.7,0.943121
3933.11,0.9428
3935.52,0.943673
3937.93,0.941956
3940.34,0.941298
3942.75,0.943376
3945.16,0.941916
3947.57,0.943125
3949.98,0.94328
3952.39,0.94238
3954.8,0.94198
3957.21,0.938585
3959.62,0.940549
3962.03,0.941663
3964.45,0.942452
3966.86,0.942295
3969.27,0.940472
3971.68,0.941622
3974.09,0.943265
3976.5,0.941583
3978.91,0.942579
3981.32,0.941047
3983.73,0.939461
3986.14,0.943329
3988.55,0.943102
3990.96,0.941766
3993.37,0.939272
3995.78,0.940648
3998.19,0.944474
4000.12,0.944742