File: FTIR_data/PET-rec.csv
449.815,0.72169
452.225,0.71037
454.636,0.699123
457.047,0.700839
459.457,0.703471
461.868,0.716723
464.278,0.730131
466.689,0.72056
469.1,0.714286
471.51,0.704922
473.921,0.697148
476.331,0.696719
478.742,0.681312
481.152,0.684869
483.563,0.690063
485.974,0.686201
488.384,0.680933
490.795,0.682093
493.205,0.677149
495.616,0.661386
498.027,0.639292
500.437,0.639867
502.848,0.63568
505.258,0.638761
507.669,0.654201
510.079,0.663431
512.49,0.674996
514.901,0.696155
517.311,0.711853
519.722,0.710136
522.132,0.705632
524.543,0.72128
526.954,0.72057
529.364,0.717725
531.775,0.719477
534.185,0.735566
536.596,0.741034
539.006,0.741844
541.417,0.745665
543.828,0.748385
546.238,0.749984
548.649,0.751333
551.059,0.754027
553.47,0.759577
555.881,0.764636
558.291,0.768715
560.702,0.771862
563.112,0.770582
565.523,0.769229
567.933,0.768447
570.344,0.767975
572.755,0.763769
575.165,0.766464
577.576,0.765782
579.986,0.77151
582.397,0.771429
584.808,0.771732
587.218,0.768874
589.629,0.762775
592.039,0.761712
594.45,0.765315
596.86,0.767274
599.271,0.762056
601.682,0.759268
604.092,0.760869
606.503,0.758898
608.913,0.755552
611.324,0.75526
613.735,0.752655
616.145,0.751485
618.556,0.750962
620.966,0.750354
623.377,0.747545
625.787,0.744795
628.198,0.74266
630.609,0.737987
633.019,0.722406
635.43,0.710234
637.84,0.723765
640.251,0.734366
642.662,0.732555
645.072,0.729515
647.483,0.728487
649.893,0.720489
652.304,0.712301
654.714,0.711115
657.125,0.705636
659.536,0.69915
661.946,0.698404
664.357,0.695875
666.767,0.694858
669.178,0.687496
671.589,0.650766
673.999,0.653641
676.41,0.661553
678.82,0.652933
681.231,0.638799
683.641,0.628189
686.052,0.628973
688.463,0.626691
690.873,0.623012
693.284,0.613347
695.694,0.601102
698.105,0.585895
700.516,0.561573
702.926,0.529248
705.337,0.497342
707.747,0.467992
710.158,0.43845
712.568,0.408518
714.979,0.370389
717.39,0.321315
719.8,0.250615
722.211,0.159287
724.621,0.0626472
727.032,0.0028745
729.443,0.0274521
731.853,0.131205
734.264,0.25842
736.674,0.381085
739.085,0.502448
741.495,0.623028
743.906,0.728444
746.317,0.799364
748.727,0.832665
751.138,0.842529
753.548,0.845349
755.959,0.8434
758.37,0.839001
760.78,0.836416
763.191,0.831855
765.601,0.828042
768.012,0.821248
770.422,0.814792
772.833,0.807289
775.244,0.799568
777.654,0.792562
780.065,0.785733
782.475,0.778302
784.886,0.770266
787.297,0.762561
789.707,0.748255
792.118,0.729729
794.528,0.711379
796.939,0.700351
799.349,0.711259
801.76,0.737656
804.171,0.751754
806.581,0.752604
808.992,0.748044
811.402,0.744798
813.813,0.74214
816.224,0.740522
818.634,0.73817
821.045,0.736756
823.455,0.735844
825.866,0.732563
828.276,0.729093
830.687,0.724161
833.098,0.71712
835.508,0.709853
837.919,0.700206
840.329,0.688028
842.74,0.679544
845.151,0.671489
847.561,0.664351
849.972,0.660272
852.382,0.660152
854.793,0.664506
857.203,0.66915
859.614,0.67002
862.025,0.668847
864.435,0.665063
866.846,0.656716
869.256,0.639332
871.667,0.606704
874.078,0.559534
876.488,0.519131
878.899,0.52527
881.309,0.567121
883.72,0.615714
886.13,0.657966
888.541,0.687341
890.952,0.705737
893.362,0.714742
895.773,0.718371
898.183,0.718593
900.594,0.717516
903.005,0.717895
905.415,0.720786
907.826,0.728506
910.236,0.738772
912.647,0.74931
915.057,0.75824
917.468,0.763823
919.879,0.766717
922.289,0.767801
924.7,0.767087
927.11,0.764693
929.521,0.761061
931.932,0.757436
934.342,0.753997
936.753,0.750413
939.163,0.746876
941.574,0.743913
943.984,0.7409
946.395,0.737867
948.806,0.733731
951.216,0.728046
953.627,0.722131
956.037,0.716452
958.448,0.709487
960.859,0.701096
963.269,0.690703
965.68,0.678421
968.09,0.665386
970.501,0.653124
972.911,0.642065
975.322,0.635065
977.733,0.633428
980.143,0.638046
982.554,0.647777
984.964,0.656435
987.375,0.662352
989.786,0.665607
992.196,0.667156
994.607,0.665895
997.017,0.661321
999.428,0.654019
1001.84,0.644741
1004.25,0.632665
1006.66,0.617353
1009.07,0.598804
1011.48,0.571646
1013.89,0.533048
1016.3,0.475781
1018.71,0.395693
1021.12,0.327296
1023.53,0.336529
1025.94,0.420886
1028.35,0.519394
1030.77,0.587805
1033.18,0.615537
1035.59,0.613095
1038,0.602125
1040.41,0.5904
1042.82,0.579009
1045.23,0.568507
1047.64,0.561653
1050.05,0.561471
1052.46,0.566895
1054.87,0.573298
1057.28,0.580664
1059.69,0.583805
1062.1,0.581011
1064.51,0.569798
1066.92,0.550403
1069.33,0.527202
1071.75,0.499135
1074.16,0.46474
1076.57,0.42523
1078.98,0.381388
1081.39,0.335105
1083.8,0.290863
1086.21,0.251601
1088.62,0.220676
1091.03,0.196911
1093.44,0.178993
1095.85,0.164874
1098.26,0.154373
1100.67,0.153063
1103.08,0.164707
1105.49,0.189424
1107.9,0.223651
1110.31,0.265081
1112.73,0.311688
1115.14,0.350076
1117.55,0.363865
1119.96,0.357456
1122.37,0.350498
1124.78,0.357976
1127.19,0.381479
1129.6,0.415024
1132.01,0.455996
1134.42,0.497964
1136.83,0.536053
1139.24,0.570394
1141.65,0.600363
1144.06,0.627314
1146.47,0.654896
1148.88,0.681324
1151.29,0.706319
1153.71,0.729897
1156.12,0.750687
1158.53,0.766523
1160.94,0.779385
1163.35,0.786644
1165.76,0.790304
1168.17,0.790696
1170.58,0.787838
1172.99,0.778385
1175.4,0.761519
1177.81,0.743003
1180.22,0.731302
1182.63,0.730082
1185.04,0.735628
1187.45,0.74321
1189.86,0.747897
1192.27,0.746722
1194.69,0.740312
1197.1,0.728971
1199.51,0.713752
1201.92,0.69624
1204.33,0.676386
1206.74,0.655304
1209.15,0.632214
1211.56,0.608608
1213.97,0.582743
1216.38,0.554947
1218.79,0.524271
1221.2,0.489955
1223.61,0.452102
1226.02,0.411482
1228.43,0.370539
1230.84,0.330399
1233.25,0.29049
1235.67,0.249713
1238.08,0.209185
1240.49,0.172215
1242.9,0.143073
1245.31,0.127267
1247.72,0.12643
1250.13,0.137341
1252.54,0.15688
1254.95,0.181084
1257.36,0.204489
1259.77,0.222589
1262.18,0.234666
1264.59,0.243337
1267,0.254106
1269.41,0.273499
1271.82,0.303812
1274.23,0.341473
1276.64,0.382129
1279.06,0.420152
1281.47,0.450188
1283.88,0.471749
1286.29,0.487189
1288.7,0.501882
1291.11,0.518923
1293.52,0.538798
1295.93,0.562795
1298.34,0.590575
1300.75,0.621723
1303.16,0.655504
1305.57,0.689708
1307.98,0.719368
1310.39,0.741448
1312.8,0.757597
1315.21,0.77267
1317.62,0.788396
1320.04,0.802769
1322.45,0.814684
1324.86,0.824106
1327.27,0.833278
1329.68,0.841793
1332.09,0.845743
1334.5,0.845923
1336.91,0.83427
1339.32,0.802719
1341.73,0.754004
1344.14,0.709059
1346.55,0.694135
1348.96,0.716103
1351.37,0.756423
1353.78,0.796864
1356.19,0.826256
1358.6,0.846006
1361.02,0.857351
1363.43,0.861782
1365.84,0.862293
1368.25,0.85772
1370.66,0.848309
1373.07,0.833712
1375.48,0.819557
1377.89,0.812579
1380.3,0.812767
1382.71,0.819005
1385.12,0.827629
1387.53,0.834462
1389.94,0.840652
1392.35,0.842541
1394.76,0.842592
1397.17,0.841546
1399.58,0.834329
1402,0.825459
1404.41,0.810822
1406.82,0.791383
1409.23,0.762755
1411.64,0.724073
1414.05,0.676615
1416.46,0.65452
1418.87,0.684019
1421.28,0.752248
1423.69,0.811742
1426.1,0.845301
1428.51,0.871184
1430.92,0.879224
1433.33,0.880904
1435.74,0.875544
1438.15,0.869327
1440.56,0.859887
1442.98,0.845417
1445.39,0.838025
1447.8,0.835215
1450.21,0.830968
1452.62,0.825483
1455.03,0.821858
1457.44,0.819602
1459.85,0.814224
1462.26,0.810617
1464.67,0.815936
1467.08,0.826465
1469.49,0.832232
1471.9,0.838454
1474.31,0.848988
1476.72,0.851337
1479.13,0.848281
1481.54,0.852751
1483.96,0.85661
1486.37,0.860284
1488.78,0.866063
1491.19,0.874498
1493.6,0.880596
1496.01,0.882987
1498.42,0.887715
1500.83,0.891874
1503.24,0.884571
1505.65,0.877262
1508.06,0.865255
1510.47,0.839082
1512.88,0.813386
1515.29,0.828459
1517.7,0.866604
1520.11,0.878596
1522.52,0.882358
1524.94,0.886052
1527.35,0.886159
1529.76,0.881129
1532.17,0.883799
1534.58,0.886124
1536.99,0.886173
1539.4,0.882027
1541.81,0.883859
1544.22,0.889601
1546.63,0.881894
1549.04,0.884437
1551.45,0.8925
1553.86,0.891161
1556.27,0.887318
1558.68,0.884072
1561.09,0.884011
1563.5,0.879092
1565.91,0.870722
1568.33,0.879031
1570.74,0.881266
1573.15,0.873907
1575.56,0.870768
1577.97,0.866511
1580.38,0.860403
1582.79,0.845592
1585.2,0.836668
1587.61,0.839775
1590.02,0.846407
1592.43,0.860026
1594.84,0.869515
1597.25,0.872313
1599.66,0.871482
1602.07,0.872402
1604.48,0.874738
1606.89,0.874491
1609.31,0.872311
1611.72,0.869543
1614.13,0.865379
1616.54,0.855774
1618.95,0.848892
1621.36,0.846852
1623.77,0.844272
1626.18,0.85111
1628.59,0.85933
1631,0.857178
1633.41,0.855143
1635.82,0.854008
1638.23,0.855094
1640.64,0.852085
1643.05,0.843981
1645.46,0.848284
1647.87,0.846382
1650.29,0.842093
1652.7,0.836834
1655.11,0.832863
1657.52,0.834368
1659.93,0.824145
1662.34,0.82239
1664.75,0.823314
1667.16,0.813714
1669.57,0.804556
1671.98,0.796093
1674.39,0.787063
1676.8,0.772525
1679.21,0.759709
1681.62,0.74947
1684.03,0.735882
1686.44,0.721032
1688.85,0.705973
1691.27,0.688785
1693.68,0.673046
1696.09,0.653598
1698.5,0.635655
1700.91,0.613545
1703.32,0.582202
1705.73,0.53636
1708.14,0.492194
1710.55,0.421583
1712.96,0.358919
1715.37,0.296359
1717.78,0.23713
1720.19,0.198559
1722.6,0.181094
1725.01,0.18591
1727.42,0.207205
1729.83,0.24795
1732.25,0.292908
1734.66,0.34332
1737.07,0.395594
1739.48,0.447957
1741.89,0.496279
1744.3,0.558677
1746.71,0.621569
1749.12,0.67589
1751.53,0.735086
1753.94,0.780502
1756.35,0.817307
1758.76,0.839915
1761.17,0.859664
1763.58,0.873364
1765.99,0.880167
1768.4,0.888205
1770.81,0.888641
1773.23,0.892073
1775.64,0.891516
1778.05,0.89247
1780.46,0.894573
1782.87,0.897248
1785.28,0.901681
1787.69,0.902702
1790.1,0.903327
1792.51,0.901135
1794.92,0.901272
1797.33,0.904015
1799.74,0.902687
1802.15,0.903079
1804.56,0.907507
1806.97,0.907533
1809.38,0.904815
1811.79,0.905398
1814.21,0.905696
1816.62,0.906073
1819.03,0.906067
1821.44,0.907889
1823.85,0.907477
1826.26,0.905211
1828.67,0.905876
1831.08,0.906294
1833.49,0.903194
1835.9,0.901907
1838.31,0.902867
1840.72,0.904964
1843.13,0.90624
1845.54,0.906725
1847.95,0.908823
1850.36,0.907567
1852.77,0.904542
1855.18,0.906518
1857.6,0.907156
1860.01,0.906132
1862.42,0.907605
1864.83,0.909463
1867.24,0.909572
1869.65,0.90942
1872.06,0.909389
1874.47,0.909973
1876.88,0.908334
1879.29,0.907108
1881.7,0.908956
1884.11,0.910127
1886.52,0.908131
1888.93,0.906595
1891.34,0.90627
1893.75,0.908409
1896.16,0.909078
1898.58,0.90891
1900.99,0.908426
1903.4,0.905838
1905.81,0.904306
1908.22,0.905986
1910.63,0.904577
1913.04,0.902586
1915.45,0.904458
1917.86,0.906281
1920.27,0.906115
1922.68,0.90375
1925.09,0.901425
1927.5,0.902664
1929.91,0.905958
1932.32,0.902416
1934.73,0.901464
1937.14,0.901223
1939.56,0.900432
1941.97,0.900231
1944.38,0.89662
1946.79,0.898682
1949.2,0.900499
1951.61,0.896225
1954.02,0.892909
1956.43,0.892284
1958.84,0.889581
1961.25,0.896604
1963.66,0.897348
1966.07,0.897362
1968.48,0.896624
1970.89,0.898129
1973.3,0.897792
1975.71,0.890121
1978.12,0.893378
1980.54,0.901058
1982.95,0.900239
1985.36,0.896558
1987.77,0.902732
1990.18,0.895945
1992.59,0.895893
1995,0.898751
1997.41,0.899123
1999.82,0.900586
2002.23,0.901267
2004.64,0.905029
2007.05,0.908291
2009.46,0.910546
2011.87,0.911227
2014.28,0.910332
2016.69,0.905729
2019.1,0.902056
2021.52,0.907611
2023.93,0.914696
2026.34,0.91648
2028.75,0.909093
2031.16,0.908505
2033.57,0.906289
2035.98,0.905004
2038.39,0.9124
2040.8,0.914931
2043.21,0.922123
2045.62,0.915589
2048.03,0.912597
2050.44,0.912223
2052.85,0.911839
2055.26,0.911366
2057.67,0.912977
2060.08,0.915946
2062.5,0.917547
2064.91,0.913822
2067.32,0.911581
2069.73,0.910972
2072.14,0.909555
2074.55,0.908338
2076.96,0.910665
2079.37,0.909755
2081.78,0.910413
2084.19,0.909471
2086.6,0.911965
2089.01,0.914002
2091.42,0.91423
2093.83,0.914415
2096.24,0.911558
2098.65,0.908599
2101.06,0.909685
2103.48,0.912556
2105.89,0.912587
2108.3,0.911543
2110.71,0.912416
2113.12,0.911724
2115.53,0.912655
2117.94,0.914291
2120.35,0.916622
2122.76,0.917814
2125.17,0.916485
2127.58,0.918283
2129.99,0.91883
2132.4,0.91771
2134.81,0.91902
2137.22,0.92465
2139.63,0.930393
2142.04,0.931245
2144.45,0.9311
2146.87,0.935249
2149.28,0.938863
2151.69,0.94223
2154.1,0.946312
2156.51,0.944868
2158.92,0.954763
2161.33,0.961545
2163.74,0.959553
2166.15,0.96439
2168.56,0.97792
2170.97,0.9966
2173.38,0.996579
2175.79,0.975759
2178.2,0.962568
2180.61,0.962796
2183.02,0.959983
2185.43,0.959473
2187.85,0.956016
2190.26,0.951914
2192.67,0.951908
2195.08,0.950293
2197.49,0.948347
2199.9,0.94387
2202.31,0.939178
2204.72,0.935179
2207.13,0.93509
2209.54,0.940312
2211.95,0.939581
2214.36,0.940093
2216.77,0.946343
2219.18,0.944166
2221.59,0.938649
2224,0.933325
2226.41,0.932157
2228.83,0.933894
2231.24,0.932532
2233.65,0.928397
2236.06,0.928663
2238.47,0.927384
2240.88,0.922137
2243.29,0.928429
2245.7,0.929079
2248.11,0.926268
2250.52,0.92483
2252.93,0.924644
2255.34,0.925439
2257.75,0.927415
2260.16,0.925752
2262.57,0.925054
2264.98,0.924234
2267.39,0.920612
2269.81,0.917353
2272.22,0.917171
2274.63,0.91786
2277.04,0.917183
2279.45,0.914849
2281.86,0.910857
2284.27,0.906479
2286.68,0.904152
2289.09,0.904467
2291.5,0.905458
2293.91,0.907807
2296.32,0.906909
2298.73,0.905646
2301.14,0.905218
2303.55,0.903711
2305.96,0.902884
2308.37,0.901179
2310.79,0.897893
2313.2,0.893835
2315.61,0.892002
2318.02,0.888841
2320.43,0.882764
2322.84,0.876889
2325.25,0.870644
2327.66,0.866138
2330.07,0.858993
2332.48,0.848669
2334.89,0.838839
2337.3,0.834192
2339.71,0.829022
2342.12,0.822463
2344.53,0.819308
2346.94,0.81888
2349.35,0.818783
2351.77,0.818596
2354.18,0.816782
2356.59,0.815452
2359,0.824584
2361.41,0.840463
2363.82,0.82919
2366.23,0.807211
2368.64,0.790609
2371.05,0.774213
2373.46,0.76605
2375.87,0.768379
2378.28,0.777619
2380.69,0.790989
2383.1,0.809079
2385.51,0.826978
2387.92,0.844716
2390.33,0.859012
2392.75,0.873953
2395.16,0.888676
2397.57,0.898025
2399.98,0.901435
2402.39,0.904362
2404.8,0.90738
2407.21,0.90802
2409.62,0.909088
2412.03,0.912095
2414.44,0.913939
2416.85,0.915385
2419.26,0.917889
2421.67,0.917391
2424.08,0.915818
2426.49,0.916591
2428.9,0.918457
2431.31,0.919265
2433.72,0.918702
2436.14,0.918234
2438.55,0.917698
2440.96,0.917025
2443.37,0.916269
2445.78,0.915245
2448.19,0.915997
2450.6,0.916396
2453.01,0.916569
2455.42,0.917844
2457.83,0.917329
2460.24,0.917127
2462.65,0.918149
2465.06,0.918962
2467.47,0.918955
2469.88,0.919408
2472.29,0.919424
2474.7,0.92
2477.12,0.918631
2479.53,0.918464
2481.94,0.918281
2484.35,0.917482
2486.76,0.917569
2489.17,0.918287
2491.58,0.918971
2493.99,0.918607
2496.4,0.919471
2498.81,0.919476
2501.22,0.918768
2503.63,0.918338
2506.04,0.919929
2508.45,0.922004
2510.86,0.921251
2513.27,0.922204
2515.68,0.922338
2518.1,0.921391
2520.51,0.920262
2522.92,0.92114
2525.33,0.920932
2527.74,0.919615
2530.15,0.919259
2532.56,0.918925
2534.97,0.919596
2537.38,0.919006
2539.79,0.920635
2542.2,0.919444
2544.61,0.916689
2547.02,0.916544
2549.43,0.917007
2551.84,0.917386
2554.25,0.91773
2556.66,0.916482
2559.08,0.915685
2561.49,0.91576
2563.9,0.915853
2566.31,0.913885
2568.72,0.913764
2571.13,0.914962
2573.54,0.915234
2575.95,0.91369
2578.36,0.914939
2580.77,0.915451
2583.18,0.914376
2585.59,0.91362
2588,0.913683
2590.41,0.913797
2592.82,0.913022
2595.23,0.913415
2597.64,0.913841
2600.06,0.913626
2602.47,0.912829
2604.88,0.911837
2607.29,0.911301
2609.7,0.911302
2612.11,0.9109
2614.52,0.909797
2616.93,0.910487
2619.34,0.908892
2621.75,0.906935
2624.16,0.907091
2626.57,0.90815
2628.98,0.90804
2631.39,0.907566
2633.8,0.907037
2636.21,0.907418
2638.62,0.906223
2641.04,0.904486
2643.45,0.90329
2645.86,0.903974
2648.27,0.90418
2650.68,0.903634
2653.09,0.903451
2655.5,0.903206
2657.91,0.90374
2660.32,0.90395
2662.73,0.903907
2665.14,0.903764
2667.55,0.904349
2669.96,0.904696
2672.37,0.904772
2674.78,0.905207
2677.19,0.905585
2679.6,0.906136
2682.02,0.906632
2684.43,0.907027
2686.84,0.907184
2689.25,0.906516
2691.66,0.906732
2694.07,0.907173
2696.48,0.907315
2698.89,0.907625
2701.3,0.907888
2703.71,0.90795
2706.12,0.907883
2708.53,0.907296
2710.94,0.907713
2713.35,0.907982
2715.76,0.908077
2718.17,0.907932
2720.58,0.90742
2722.99,0.906981
2725.41,0.907405
2727.82,0.907189
2730.23,0.906524
2732.64,0.907027
2735.05,0.907138
2737.46,0.906924
2739.87,0.907332
2742.28,0.906813
2744.69,0.906274
2747.1,0.906848
2749.51,0.906749
2751.92,0.906104
2754.33,0.906694
2756.74,0.90618
2759.15,0.906434
2761.56,0.906718
2763.97,0.906611
2766.39,0.906186
2768.8,0.905705
2771.21,0.905735
2773.62,0.905514
2776.03,0.905037
2778.44,0.905051
2780.85,0.905353
2783.26,0.905989
2785.67,0.906267
2788.08,0.905539
2790.49,0.90545
2792.9,0.905401
2795.31,0.905268
2797.72,0.904956
2800.13,0.904015
2802.54,0.903026
2804.95,0.902705
2807.37,0.903583
2809.78,0.90369
2812.19,0.903265
2814.6,0.903243
2817.01,0.903168
2819.42,0.902926
2821.83,0.902661
2824.24,0.902752
2826.65,0.90292
2829.06,0.903552
2831.47,0.90301
2833.88,0.903477
2836.29,0.903784
2838.7,0.903732
2841.11,0.902891
2843.52,0.902481
2845.93,0.902136
2848.35,0.902353
2850.76,0.902657
2853.17,0.903049
2855.58,0.903436
2857.99,0.903799
2860.4,0.903003
2862.81,0.902391
2865.22,0.902793
2867.63,0.902368
2870.04,0.902336
2872.45,0.902186
2874.86,0.900883
2877.27,0.900932
2879.68,0.901475
2882.09,0.900759
2884.5,0.901142
2886.91,0.901808
2889.33,0.900557
2891.74,0.900257
2894.15,0.900283
2896.56,0.899006
2898.97,0.898944
2901.38,0.898518
2903.79,0.898291
2906.2,0.899
2908.61,0.899455
2911.02,0.898571
2913.43,0.897349
2915.84,0.899246
2918.25,0.900744
2920.66,0.89902
2923.07,0.898376
2925.48,0.899352
2927.89,0.900495
2930.31,0.900729
2932.72,0.901772
2935.13,0.902388
2937.54,0.902992
2939.95,0.904746
2942.36,0.904371
2944.77,0.90427
2947.18,0.904328
2949.59,0.902059
2952,0.901606
2954.41,0.89927
2956.82,0.896726
2959.23,0.895453
2961.64,0.891866
2964.05,0.888069
2966.46,0.885158
2968.87,0.883564
2971.29,0.881336
2973.7,0.879107
2976.11,0.878805
2978.52,0.878369
2980.93,0.87703
2983.34,0.877503
2985.75,0.8788
2988.16,0.879806
2990.57,0.881717
2992.98,0.88364
2995.39,0.885975
2997.8,0.887325
3000.21,0.889349
3002.62,0.891643
3005.03,0.893951
3007.44,0.894658
3009.85,0.893924
3012.27,0.89542
3014.68,0.896417
3017.09,0.896635
3019.5,0.897063
3021.91,0.896472
3024.32,0.897314
3026.73,0.899139
3029.14,0.899188
3031.55,0.897979
3033.96,0.89759
3036.37,0.899098
3038.78,0.899856
3041.19,0.900421
3043.6,0.901493
3046.01,0.90123
3048.42,0.900448
3050.83,0.900366
3053.24,0.900826
3055.66,0.900638
3058.07,0.899784
3060.48,0.899306
3062.89,0.899492
3065.3,0.899213
3067.71,0.897298
3070.12,0.89661
3072.53,0.896292
3074.94,0.896126
3077.35,0.896604
3079.76,0.897079
3082.17,0.897141
3084.58,0.896435
3086.99,0.896506
3089.4,0.896816
3091.81,0.896532
3094.22,0.89542
3096.64,0.894855
3099.05,0.89672
3101.46,0.896859
3103.87,0.896837
3106.28,0.899037
3108.69,0.900431
3111.1,0.899451
3113.51,0.899581
3115.92,0.899313
3118.33,0.898241
3120.74,0.899755
3123.15,0.89911
3125.56,0.899277
3127.97,0.900484
3130.38,0.902526
3132.79,0.901406
3135.2,0.900869
3137.62,0.902118
3140.03,0.901599
3142.44,0.902039
3144.85,0.900878
3147.26,0.902162
3149.67,0.90356
3152.08,0.903756
3154.49,0.90347
3156.9,0.903346
3159.31,0.903562
3161.72,0.904335
3164.13,0.904842
3166.54,0.903776
3168.95,0.90429
3171.36,0.905995
3173.77,0.904947
3176.18,0.905164
3178.6,0.905996
3181.01,0.905226
3183.42,0.906889
3185.83,0.907894
3188.24,0.909272
3190.65,0.907785
3193.06,0.906293
3195.47,0.905805
3197.88,0.905133
3200.29,0.904829
3202.7,0.906601
3205.11,0.906764
3207.52,0.906825
3209.93,0.907617
3212.34,0.905948
3214.75,0.904293
3217.16,0.905301
3219.58,0.906504
3221.99,0.906901
3224.4,0.907567
3226.81,0.907413
3229.22,0.906483
3231.63,0.906853
3234.04,0.90881
3236.45,0.907769
3238.86,0.906254
3241.27,0.904946
3243.68,0.906361
3246.09,0.908519
3248.5,0.907885
3250.91,0.906121
3253.32,0.906794
3255.73,0.907963
3258.14,0.907008
3260.56,0.906495
3262.97,0.906384
3265.38,0.907103
3267.79,0.90821
3270.2,0.907789
3272.61,0.907814
3275.02,0.907263
3277.43,0.906095
3279.84,0.906584
3282.25,0.909919
3284.66,0.909084
3287.07,0.907018
3289.48,0.907301
3291.89,0.906496
3294.3,0.906116
3296.71,0.906797
3299.12,0.90782
3301.54,0.910214
3303.95,0.909734
3306.36,0.90744
3308.77,0.905636
3311.18,0.906014
3313.59,0.906927
3316,0.908382
3318.41,0.907866
3320.82,0.906038
3323.23,0.90501
3325.64,0.905871
3328.05,0.907451
3330.46,0.908712
3332.87,0.909816
3335.28,0.908194
3337.69,0.907136
3340.1,0.906194
3342.51,0.907845
3344.93,0.90873
3347.34,0.909937
3349.75,0.908656
3352.16,0.907573
3354.57,0.909158
3356.98,0.909422
3359.39,0.908921
3361.8,0.908913
3364.21,0.90971
3366.62,0.909668
3369.03,0.909318
3371.44,0.908329
3373.85,0.909204
3376.26,0.910825
3378.67,0.910835
3381.08,0.912101
3383.49,0.910889
3385.91,0.909983
3388.32,0.910201
3390.73,0.910908
3393.14,0.911015
3395.55,0.911243
3397.96,0.911374
3400.37,0.910903
3402.78,0.911057
3405.19,0.912152
3407.6,0.912132
3410.01,0.911723
3412.42,0.907031
3414.83,0.907903
3417.24,0.912341
3419.65,0.911252
3422.06,0.909359
3424.47,0.909488
3426.89,0.90801
3429.3,0.907079
3431.71,0.907397
3434.12,0.908475
3436.53,0.908823
3438.94,0.908298
3441.35,0.907764
3443.76,0.905812
3446.17,0.904878
3448.58,0.907215
3450.99,0.90605
3453.4,0.902678
3455.81,0.902848
3458.22,0.906252
3460.63,0.906941
3463.04,0.905613
3465.45,0.905785
3467.87,0.908537
3470.28,0.909364
3472.69,0.910056
3475.1,0.911443
3477.51,0.912593
3479.92,0.911753
3482.33,0.909318
3484.74,0.909863
3487.15,0.909717
3489.56,0.91113
3491.97,0.912317
3494.38,0.912891
3496.79,0.915469
3499.2,0.91156
3501.61,0.908667
3504.02,0.910896
3506.43,0.910729
3508.85,0.90968
3511.26,0.908828
3513.67,0.90822
3516.08,0.909409
3518.49,0.912166
3520.9,0.913135
3523.31,0.91259
3525.72,0.913238
3528.13,0.912913
3530.54,0.912812
3532.95,0.911885
3535.36,0.910649
3537.77,0.911369
3540.18,0.912129
3542.59,0.912133
3545,0.907213
3547.41,0.906297
3549.83,0.907708
3552.24,0.910258
3554.65,0.910634
3557.06,0.911746
3559.47,0.909593
3561.88,0.906731
3564.29,0.907035
3566.7,0.908314
3569.11,0.908196
3571.52,0.908689
3573.93,0.911332
3576.34,0.907679
3578.75,0.906555
3581.16,0.9092
3583.57,0.908276
3585.98,0.905779
3588.39,0.910802
3590.81,0.912849
3593.22,0.913778
3595.63,0.910972
3598.04,0.909551
3600.45,0.90848
3602.86,0.905309
3605.27,0.903575
3607.68,0.90483
3610.09,0.906631
3612.5,0.906222
3614.91,0.905823
3617.32,0.905777
3619.73,0.902649
3622.14,0.90171
3624.55,0.900837
3626.96,0.900559
3629.37,0.902536
3631.78,0.900468
3634.2,0.904054
3636.61,0.901688
3639.02,0.901036
3641.43,0.907599
3643.84,0.904041
3646.25,0.898773
3648.66,0.898058
3651.07,0.906081
3653.48,0.902525
3655.89,0.901894
3658.3,0.902243
3660.71,0.904816
3663.12,0.90522
3665.53,0.900613
3667.94,0.899605
3670.35,0.90578
3672.76,0.912326
3675.18,0.90963
3677.59,0.914181
3680,0.913718
3682.41,0.906804
3684.82,0.905114
3687.23,0.904775
3689.64,0.907095
3692.05,0.916253
3694.46,0.904706
3696.87,0.912084
3699.28,0.913987
3701.69,0.90875
3704.1,0.906983
3706.51,0.906501
3708.92,0.910574
3711.33,0.914954
3713.74,0.911407
3716.16,0.911252
3718.57,0.906975
3720.98,0.903432
3723.39,0.908821
3725.8,0.90449
3728.21,0.898336
3730.62,0.905821
3733.03,0.917933
3735.44,0.919033
3737.85,0.912607
3740.26,0.908494
3742.67,0.907547
3745.08,0.903876
3747.49,0.903159
3749.9,0.905575
3752.31,0.902877
3754.72,0.905037
3757.14,0.909773
3759.55,0.911922
3761.96,0.903082
3764.37,0.898131
3766.78,0.915373
3769.19,0.906767
3771.6,0.908106
3774.01,0.915044
3776.42,0.909136
3778.83,0.90098
3781.24,0.902716
3783.65,0.904365
3786.06,0.901816
3788.47,0.902437
3790.88,0.906026
3793.29,0.913604
3795.7,0.9097
3798.12,0.901413
3800.53,0.903674
3802.94,0.908647
3805.35,0.908
3807.76,0.912539
3810.17,0.916109
3812.58,0.913256
3814.99,0.907867
3817.4,0.909459
3819.81,0.909062
3822.22,0.905234
3824.63,0.917154
3827.04,0.914746
3829.45,0.915614
3831.86,0.911576
3834.27,0.904186
3836.68,0.901719
3839.1,0.907793
3841.51,0.905425
3843.92,0.919642
3846.33,0.910768
3848.74,0.909227
3851.15,0.908335
3853.56,0.908511
3855.97,0.908068
3858.38,0.910001
3860.79,0.915941
3863.2,0.912599
3865.61,0.909955
3868.02,0.909492
3870.43,0.905722
3872.84,0.899
3875.25,0.909126
3877.66,0.917136
3880.08,0.908451
3882.49,0.904058
3884.9,0.90612
3887.31,0.909607
3889.72,0.905277
3892.13,0.907543
3894.54,0.909017
3896.95,0.911444
3899.36,0.908544
3901.77,0.904114
3904.18,0.909603
3906.59,0.905911
3909,0.90752
3911.41,0.90599
3913.82,0.909651
3916.23,0.912461
3918.64,0.905305
3921.05,0.904633
3923.47,0.906702
3925.88,0.904608
3928.29,0.906545
3930.7,0.904455
3933.11,0.905493
3935.52,0.906181
3937.93,0.905261
3940.34,0.905779
3942.75,0.903865
3945.16,0.904467
3947.57,0.908216
3949.98,0.907102
3952.39,0.903157
3954.8,0.904578
3957.21,0.903873
3959.62,0.906233
3962.03,0.907178
3964.45,0.906807
3966.86,0.906664
3969.27,0.903696
3971.68,0.904347
3974.09,0.906435
3976.5,0.906449
3978.91,0.904671
3981.32,0.904002
3983.73,0.904356
3986.14,0.906431
3988.55,0.907347
3990.96,0.906899
3993.37,0.904876
3995.78,0.906499
3998.19,0.908736
4000.12,0.908265