File: FTIR_data/PET.csv
449.815,0.775963
452.225,0.763149
454.636,0.76188
457.047,0.766655
459.457,0.762255
461.868,0.762805
464.278,0.787636
466.689,0.787471
469.1,0.775858
471.51,0.772139
473.921,0.770543
476.331,0.776201
478.742,0.767802
481.152,0.763061
483.563,0.758467
485.974,0.750531
488.384,0.739606
490.795,0.740023
493.205,0.736939
495.616,0.718675
498.027,0.698877
500.437,0.688347
502.848,0.673083
505.258,0.677141
507.669,0.693853
510.079,0.708503
512.49,0.732085
514.901,0.755193
517.311,0.766751
519.722,0.77031
522.132,0.770517
524.543,0.777
526.954,0.778583
529.364,0.783552
531.775,0.781484
534.185,0.796371
536.596,0.803329
539.006,0.805893
541.417,0.812067
543.828,0.821861
546.238,0.823868
548.649,0.820925
551.059,0.824488
553.47,0.83342
555.881,0.839496
558.291,0.840167
560.702,0.839785
563.112,0.844254
565.523,0.851522
567.933,0.848635
570.344,0.845674
572.755,0.842507
575.165,0.844436
577.576,0.841002
579.986,0.846454
582.397,0.850367
584.808,0.851621
587.218,0.848514
589.629,0.846566
592.039,0.846402
594.45,0.849333
596.86,0.849212
599.271,0.844905
601.682,0.841026
604.092,0.838811
606.503,0.837795
608.913,0.835293
611.324,0.834712
613.735,0.834341
616.145,0.833368
618.556,0.832364
620.966,0.831467
623.377,0.827226
625.787,0.822747
628.198,0.818562
630.609,0.810686
633.019,0.79288
635.43,0.776623
637.84,0.793091
640.251,0.807146
642.662,0.807248
645.072,0.804456
647.483,0.802646
649.893,0.798886
652.304,0.793721
654.714,0.789216
657.125,0.782508
659.536,0.775393
661.946,0.772263
664.357,0.769443
666.767,0.76513
669.178,0.755618
671.589,0.73116
673.999,0.727387
676.41,0.724118
678.82,0.711498
681.231,0.693315
683.641,0.679574
686.052,0.677953
688.463,0.676802
690.873,0.672634
693.284,0.662821
695.694,0.646913
698.105,0.624013
700.516,0.591539
702.926,0.549311
705.337,0.507548
707.747,0.472473
710.158,0.437939
712.568,0.40218
714.979,0.359635
717.39,0.306627
719.8,0.232459
722.211,0.141476
724.621,0.0535084
727.032,0.00227186
729.443,0.0253454
731.853,0.119864
734.264,0.23961
736.674,0.357374
739.085,0.477116
741.495,0.602157
743.906,0.716649
746.317,0.800943
748.727,0.848803
751.138,0.868853
753.548,0.87771
755.959,0.880396
758.37,0.879467
760.78,0.877652
763.191,0.874064
765.601,0.87009
768.012,0.864439
770.422,0.857468
772.833,0.848378
775.244,0.839853
777.654,0.831248
780.065,0.82287
782.475,0.814253
784.886,0.805192
787.297,0.793965
789.707,0.777161
792.118,0.755809
794.528,0.731982
796.939,0.71705
799.349,0.729645
801.76,0.764203
804.171,0.784504
806.581,0.785368
808.992,0.781146
811.402,0.77619
813.813,0.772355
816.224,0.770402
818.634,0.767946
821.045,0.76713
823.455,0.764786
825.866,0.760132
828.276,0.755738
830.687,0.750818
833.098,0.741594
835.508,0.731164
837.919,0.719848
840.329,0.706138
842.74,0.69485
845.151,0.684307
847.561,0.674724
849.972,0.669332
852.382,0.667771
854.793,0.671046
857.203,0.67683
859.614,0.679017
862.025,0.678309
864.435,0.67463
866.846,0.66521
869.256,0.646677
871.667,0.61006
874.078,0.556094
876.488,0.506598
878.899,0.504017
881.309,0.545686
883.72,0.598999
886.13,0.649085
888.541,0.689294
890.952,0.71551
893.362,0.729965
895.773,0.736485
898.183,0.737477
900.594,0.735902
903.005,0.736562
905.415,0.740243
907.826,0.748281
910.236,0.759853
912.647,0.772455
915.057,0.783443
917.468,0.791157
919.879,0.795712
922.289,0.797859
924.7,0.797502
927.11,0.79496
929.521,0.791415
931.932,0.787429
934.342,0.782692
936.753,0.778517
939.163,0.774922
941.574,0.77056
943.984,0.765672
946.395,0.761668
948.806,0.755736
951.216,0.748628
953.627,0.740653
956.037,0.732407
958.448,0.723343
960.859,0.712792
963.269,0.70143
965.68,0.688342
968.09,0.673588
970.501,0.660259
972.911,0.64903
975.322,0.642501
977.733,0.64161
980.143,0.6476
982.554,0.657791
984.964,0.669064
987.375,0.678046
989.786,0.682597
992.196,0.684209
994.607,0.682733
997.017,0.678532
999.428,0.671019
1001.84,0.660177
1004.25,0.64638
1006.66,0.62956
1009.07,0.608791
1011.48,0.578615
1013.89,0.534169
1016.3,0.469036
1018.71,0.378886
1021.12,0.295658
1023.53,0.289688
1025.94,0.370621
1028.35,0.480251
1030.77,0.564664
1033.18,0.606349
1035.59,0.61117
1038,0.601389
1040.41,0.588807
1042.82,0.575183
1045.23,0.561754
1047.64,0.552644
1050.05,0.549614
1052.46,0.551491
1054.87,0.556033
1057.28,0.561307
1059.69,0.562682
1062.1,0.557999
1064.51,0.545817
1066.92,0.523853
1069.33,0.495721
1071.75,0.462866
1074.16,0.423931
1076.57,0.37981
1078.98,0.331177
1081.39,0.279789
1083.8,0.228765
1086.21,0.183388
1088.62,0.147817
1091.03,0.121809
1093.44,0.102042
1095.85,0.0864831
1098.26,0.0756681
1100.67,0.0740899
1103.08,0.0839261
1105.49,0.104857
1107.9,0.137519
1110.31,0.179742
1112.73,0.227467
1115.14,0.26846
1117.55,0.286621
1119.96,0.282328
1122.37,0.275703
1124.78,0.284949
1127.19,0.312502
1129.6,0.352175
1132.01,0.398785
1134.42,0.446929
1136.83,0.492059
1139.24,0.532642
1141.65,0.568981
1144.06,0.601999
1146.47,0.633911
1148.88,0.665037
1151.29,0.695265
1153.71,0.722931
1156.12,0.747881
1158.53,0.769547
1160.94,0.78718
1163.35,0.798589
1165.76,0.806675
1168.17,0.810304
1170.58,0.81003
1172.99,0.801452
1175.4,0.782506
1177.81,0.760014
1180.22,0.744538
1182.63,0.743008
1185.04,0.751752
1187.45,0.763872
1189.86,0.773825
1192.27,0.77651
1194.69,0.770287
1197.1,0.757556
1199.51,0.740032
1201.92,0.718918
1204.33,0.694964
1206.74,0.668956
1209.15,0.6417
1211.56,0.613423
1213.97,0.582745
1216.38,0.549873
1218.79,0.514315
1221.2,0.474748
1223.61,0.431686
1226.02,0.386601
1228.43,0.341517
1230.84,0.297405
1233.25,0.254325
1235.67,0.211206
1238.08,0.167544
1240.49,0.127302
1242.9,0.0953342
1245.31,0.0749003
1247.72,0.0685127
1250.13,0.0740239
1252.54,0.0885655
1254.95,0.108608
1257.36,0.129532
1259.77,0.148242
1262.18,0.163393
1264.59,0.175339
1267,0.190485
1269.41,0.214718
1271.82,0.248704
1274.23,0.289851
1276.64,0.333348
1279.06,0.373782
1281.47,0.40571
1283.88,0.428498
1286.29,0.445268
1288.7,0.461445
1291.11,0.479406
1293.52,0.500934
1295.93,0.527304
1298.34,0.557567
1300.75,0.591486
1303.16,0.628162
1305.57,0.665393
1307.98,0.698942
1310.39,0.725465
1312.8,0.745156
1315.21,0.763029
1317.62,0.78116
1320.04,0.797927
1322.45,0.812712
1324.86,0.825281
1327.27,0.837317
1329.68,0.84733
1332.09,0.852657
1334.5,0.852746
1336.91,0.838665
1339.32,0.800356
1341.73,0.739293
1344.14,0.682484
1346.55,0.66231
1348.96,0.686208
1351.37,0.732499
1353.78,0.782236
1356.19,0.820537
1358.6,0.84787
1361.02,0.864618
1363.43,0.872864
1365.84,0.876123
1368.25,0.872632
1370.66,0.862883
1373.07,0.846777
1375.48,0.829963
1377.89,0.82025
1380.3,0.819388
1382.71,0.825978
1385.12,0.836353
1387.53,0.844754
1389.94,0.85156
1392.35,0.8542
1394.76,0.854114
1397.17,0.851809
1399.58,0.84336
1402,0.832855
1404.41,0.816412
1406.82,0.792855
1409.23,0.757624
1411.64,0.708573
1414.05,0.65018
1416.46,0.61786
1418.87,0.644799
1421.28,0.722422
1423.69,0.797992
1426.1,0.847157
1428.51,0.882792
1430.92,0.896407
1433.33,0.901744
1435.74,0.89863
1438.15,0.891916
1440.56,0.880042
1442.98,0.864869
1445.39,0.853894
1447.8,0.847364
1450.21,0.842775
1452.62,0.838538
1455.03,0.83507
1457.44,0.831813
1459.85,0.825016
1462.26,0.820302
1464.67,0.823432
1467.08,0.835024
1469.49,0.842832
1471.9,0.851332
1474.31,0.863138
1476.72,0.866572
1479.13,0.864065
1481.54,0.868107
1483.96,0.874209
1486.37,0.880154
1488.78,0.888565
1491.19,0.899382
1493.6,0.908004
1496.01,0.913213
1498.42,0.919089
1500.83,0.923788
1503.24,0.919559
1505.65,0.911966
1508.06,0.896025
1510.47,0.864234
1512.88,0.831068
1515.29,0.84092
1517.7,0.884463
1520.11,0.904872
1522.52,0.913613
1524.94,0.918744
1527.35,0.920399
1529.76,0.916674
1532.17,0.916961
1534.58,0.9176
1536.99,0.918138
1539.4,0.916774
1541.81,0.918612
1544.22,0.923357
1546.63,0.920621
1549.04,0.921678
1551.45,0.925156
1553.86,0.92507
1556.27,0.923182
1558.68,0.920339
1561.09,0.920114
1563.5,0.916975
1565.91,0.912807
1568.33,0.914074
1570.74,0.91306
1573.15,0.90845
1575.56,0.904753
1577.97,0.899622
1580.38,0.891389
1582.79,0.877839
1585.2,0.86522
1587.61,0.861255
1590.02,0.867333
1592.43,0.884413
1594.84,0.897926
1597.25,0.904011
1599.66,0.905469
1602.07,0.907577
1604.48,0.909335
1606.89,0.907831
1609.31,0.904791
1611.72,0.900697
1614.13,0.896427
1616.54,0.887158
1618.95,0.879145
1621.36,0.87478
1623.77,0.871707
1626.18,0.877154
1628.59,0.88651
1631,0.888836
1633.41,0.888733
1635.82,0.887838
1638.23,0.886714
1640.64,0.884265
1643.05,0.877659
1645.46,0.878091
1647.87,0.876547
1650.29,0.873857
1652.7,0.869994
1655.11,0.865042
1657.52,0.863739
1659.93,0.855865
1662.34,0.853232
1664.75,0.849715
1667.16,0.839877
1669.57,0.830259
1671.98,0.819781
1674.39,0.808684
1676.8,0.792604
1679.21,0.779001
1681.62,0.76641
1684.03,0.74786
1686.44,0.732246
1688.85,0.713479
1691.27,0.691243
1693.68,0.674176
1696.09,0.657367
1698.5,0.634693
1700.91,0.608852
1703.32,0.56823
1705.73,0.522719
1708.14,0.468536
1710.55,0.403365
1712.96,0.328118
1715.37,0.254268
1717.78,0.190691
1720.19,0.146582
1722.6,0.122715
1725.01,0.124984
1727.42,0.160301
1729.83,0.212198
1732.25,0.246809
1734.66,0.298019
1737.07,0.350813
1739.48,0.40689
1741.89,0.456253
1744.3,0.530855
1746.71,0.598478
1749.12,0.65327
1751.53,0.72002
1753.94,0.772898
1756.35,0.818903
1758.76,0.852178
1761.17,0.879376
1763.58,0.895786
1765.99,0.906206
1768.4,0.915362
1770.81,0.917982
1773.23,0.92129
1775.64,0.923182
1778.05,0.924334
1780.46,0.926097
1782.87,0.92746
1785.28,0.929726
1787.69,0.931381
1790.1,0.931773
1792.51,0.930509
1794.92,0.930213
1797.33,0.932435
1799.74,0.93312
1802.15,0.931244
1804.56,0.933264
1806.97,0.934894
1809.38,0.933954
1811.79,0.934614
1814.21,0.934226
1816.62,0.935567
1819.03,0.935356
1821.44,0.935787
1823.85,0.935086
1826.26,0.935106
1828.67,0.935752
1831.08,0.935119
1833.49,0.93279
1835.9,0.930946
1838.31,0.932492
1840.72,0.93422
1843.13,0.935692
1845.54,0.936413
1847.95,0.937843
1850.36,0.937999
1852.77,0.935734
1855.18,0.935329
1857.6,0.936317
1860.01,0.935864
1862.42,0.936696
1864.83,0.939693
1867.24,0.939688
1869.65,0.939246
1872.06,0.939354
1874.47,0.940529
1876.88,0.940542
1879.29,0.936746
1881.7,0.937019
1884.11,0.939729
1886.52,0.939253
1888.93,0.939238
1891.34,0.93887
1893.75,0.939272
1896.16,0.93902
1898.58,0.937847
1900.99,0.936174
1903.4,0.936
1905.81,0.936276
1908.22,0.937155
1910.63,0.935254
1913.04,0.933978
1915.45,0.935381
1917.86,0.935776
1920.27,0.933733
1922.68,0.93398
1925.09,0.932919
1927.5,0.932573
1929.91,0.931555
1932.32,0.929633
1934.73,0.930049
1937.14,0.929682
1939.56,0.926547
1941.97,0.924895
1944.38,0.92297
1946.79,0.924204
1949.2,0.922213
1951.61,0.918931
1954.02,0.916143
1956.43,0.914407
1958.84,0.911667
1961.25,0.914868
1963.66,0.918666
1966.07,0.919385
1968.48,0.917537
1970.89,0.910115
1973.3,0.908188
1975.71,0.906742
1978.12,0.908393
1980.54,0.912329
1982.95,0.907534
1985.36,0.905236
1987.77,0.909469
1990.18,0.907115
1992.59,0.910007
1995,0.912052
1997.41,0.911643
1999.82,0.917483
2002.23,0.924924
2004.64,0.926628
2007.05,0.92493
2009.46,0.929029
2011.87,0.927355
2014.28,0.927017
2016.69,0.927339
2019.1,0.92424
2021.52,0.929414
2023.93,0.934482
2026.34,0.93377
2028.75,0.926541
2031.16,0.929061
2033.57,0.930257
2035.98,0.926876
2038.39,0.933906
2040.8,0.934116
2043.21,0.936743
2045.62,0.934253
2048.03,0.933622
2050.44,0.935518
2052.85,0.934176
2055.26,0.932984
2057.67,0.935837
2060.08,0.935159
2062.5,0.939762
2064.91,0.941941
2067.32,0.93802
2069.73,0.937686
2072.14,0.937305
2074.55,0.937074
2076.96,0.936178
2079.37,0.937173
2081.78,0.938453
2084.19,0.939059
2086.6,0.939061
2089.01,0.942661
2091.42,0.945311
2093.83,0.944663
2096.24,0.942708
2098.65,0.94112
2101.06,0.941515
2103.48,0.943837
2105.89,0.944074
2108.3,0.942204
2110.71,0.942998
2113.12,0.943765
2115.53,0.944163
2117.94,0.946452
2120.35,0.945603
2122.76,0.946358
2125.17,0.949157
2127.58,0.950901
2129.99,0.948799
2132.4,0.94859
2134.81,0.951952
2137.22,0.955698
2139.63,0.959107
2142.04,0.961037
2144.45,0.963597
2146.87,0.963263
2149.28,0.965543
2151.69,0.969859
2154.1,0.97273
2156.51,0.97497
2158.92,0.978411
2161.33,0.97904
2163.74,0.982603
2166.15,0.987886
2168.56,0.992023
2170.97,0.999656
2173.38,0.997824
2175.79,0.987663
2178.2,0.982175
2180.61,0.979814
2183.02,0.977307
2185.43,0.97813
2187.85,0.976545
2190.26,0.977153
2192.67,0.976731
2195.08,0.969028
2197.49,0.967876
2199.9,0.967467
2202.31,0.962346
2204.72,0.965183
2207.13,0.969394
2209.54,0.969458
2211.95,0.968967
2214.36,0.971087
2216.77,0.977439
2219.18,0.977309
2221.59,0.972633
2224,0.967745
2226.41,0.964308
2228.83,0.965553
2231.24,0.965
2233.65,0.962545
2236.06,0.962821
2238.47,0.959014
2240.88,0.956781
2243.29,0.959295
2245.7,0.958939
2248.11,0.95817
2250.52,0.958042
2252.93,0.958935
2255.34,0.960102
2257.75,0.960686
2260.16,0.959387
2262.57,0.957492
2264.98,0.956096
2267.39,0.955516
2269.81,0.954817
2272.22,0.954359
2274.63,0.953144
2277.04,0.950703
2279.45,0.948963
2281.86,0.94682
2284.27,0.943756
2286.68,0.940737
2289.09,0.940428
2291.5,0.942414
2293.91,0.94382
2296.32,0.94417
2298.73,0.942348
2301.14,0.941407
2303.55,0.940613
2305.96,0.940326
2308.37,0.93981
2310.79,0.938847
2313.2,0.937788
2315.61,0.937676
2318.02,0.935573
2320.43,0.931729
2322.84,0.929612
2325.25,0.926211
2327.66,0.922647
2330.07,0.918632
2332.48,0.912592
2334.89,0.905067
2337.3,0.898892
2339.71,0.89829
2342.12,0.896825
2344.53,0.895712
2346.94,0.895971
2349.35,0.896625
2351.77,0.897177
2354.18,0.895212
2356.59,0.89266
2359,0.897622
2361.41,0.905804
2363.82,0.901109
2366.23,0.888025
2368.64,0.876724
2371.05,0.867963
2373.46,0.863915
2375.87,0.863505
2378.28,0.866693
2380.69,0.875681
2383.1,0.887237
2385.51,0.897292
2387.92,0.906768
2390.33,0.915166
2392.75,0.92357
2395.16,0.932036
2397.57,0.937319
2399.98,0.9389
2402.39,0.940821
2404.8,0.943149
2407.21,0.942948
2409.62,0.94478
2412.03,0.947297
2414.44,0.94834
2416.85,0.949243
2419.26,0.951397
2421.67,0.952135
2424.08,0.951373
2426.49,0.951445
2428.9,0.952404
2431.31,0.952451
2433.72,0.951704
2436.14,0.951184
2438.55,0.950959
2440.96,0.950805
2443.37,0.949581
2445.78,0.948859
2448.19,0.949035
2450.6,0.949297
2453.01,0.950308
2455.42,0.951798
2457.83,0.951212
2460.24,0.950613
2462.65,0.951234
2465.06,0.952037
2467.47,0.951948
2469.88,0.952228
2472.29,0.95183
2474.7,0.952287
2477.12,0.95177
2479.53,0.951142
2481.94,0.950803
2484.35,0.951578
2486.76,0.952215
2489.17,0.952764
2491.58,0.953038
2493.99,0.952309
2496.4,0.952522
2498.81,0.952202
2501.22,0.95288
2503.63,0.952865
2506.04,0.951734
2508.45,0.952509
2510.86,0.953515
2513.27,0.953314
2515.68,0.953311
2518.1,0.953537
2520.51,0.95336
2522.92,0.953968
2525.33,0.953106
2527.74,0.952721
2530.15,0.952245
2532.56,0.951766
2534.97,0.951432
2537.38,0.950778
2539.79,0.952007
2542.2,0.952448
2544.61,0.950982
2547.02,0.950388
2549.43,0.950393
2551.84,0.951227
2554.25,0.952464
2556.66,0.951546
2559.08,0.950848
2561.49,0.951196
2563.9,0.951582
2566.31,0.951558
2568.72,0.951506
2571.13,0.951359
2573.54,0.950915
2575.95,0.950772
2578.36,0.950479
2580.77,0.949815
2583.18,0.95009
2585.59,0.951005
2588,0.950792
2590.41,0.949337
2592.82,0.949325
2595.23,0.950157
2597.64,0.949991
2600.06,0.949691
2602.47,0.949886
2604.88,0.948456
2607.29,0.948017
2609.7,0.948024
2612.11,0.947332
2614.52,0.94695
2616.93,0.946941
2619.34,0.945928
2621.75,0.945996
2624.16,0.945496
2626.57,0.944721
2628.98,0.944199
2631.39,0.944514
2633.8,0.944624
2636.21,0.944722
2638.62,0.943222
2641.04,0.942402
2643.45,0.941442
2645.86,0.941345
2648.27,0.941238
2650.68,0.940715
2653.09,0.940821
2655.5,0.941115
2657.91,0.940842
2660.32,0.941227
2662.73,0.941541
2665.14,0.941301
2667.55,0.941415
2669.96,0.941517
2672.37,0.941389
2674.78,0.941867
2677.19,0.942825
2679.6,0.943246
2682.02,0.943793
2684.43,0.944128
2686.84,0.943708
2689.25,0.943337
2691.66,0.943396
2694.07,0.943538
2696.48,0.943471
2698.89,0.943682
2701.3,0.943875
2703.71,0.943467
2706.12,0.943539
2708.53,0.94351
2710.94,0.943406
2713.35,0.943233
2715.76,0.942804
2718.17,0.942595
2720.58,0.942178
2722.99,0.941561
2725.41,0.941321
2727.82,0.941261
2730.23,0.941173
2732.64,0.941045
2735.05,0.940811
2737.46,0.941466
2739.87,0.941514
2742.28,0.940178
2744.69,0.939952
2747.1,0.940186
2749.51,0.940111
2751.92,0.939436
2754.33,0.93917
2756.74,0.939183
2759.15,0.939099
2761.56,0.939091
2763.97,0.938687
2766.39,0.938567
2768.8,0.938816
2771.21,0.9388
2773.62,0.938471
2776.03,0.93795
2778.44,0.938182
2780.85,0.938188
2783.26,0.937489
2785.67,0.936984
2788.08,0.93705
2790.49,0.937259
2792.9,0.936607
2795.31,0.936579
2797.72,0.936214
2800.13,0.936049
2802.54,0.935551
2804.95,0.934829
2807.37,0.934662
2809.78,0.934457
2812.19,0.934267
2814.6,0.934257
2817.01,0.933765
2819.42,0.933216
2821.83,0.932784
2824.24,0.932821
2826.65,0.932315
2829.06,0.932914
2831.47,0.93252
2833.88,0.932576
2836.29,0.932851
2838.7,0.932664
2841.11,0.932249
2843.52,0.931868
2845.93,0.930967
2848.35,0.930647
2850.76,0.930938
2853.17,0.931584
2855.58,0.9311
2857.99,0.931563
2860.4,0.93128
2862.81,0.930743
2865.22,0.930183
2867.63,0.929302
2870.04,0.928491
2872.45,0.927974
2874.86,0.927478
2877.27,0.927062
2879.68,0.927353
2882.09,0.926586
2884.5,0.926412
2886.91,0.926956
2889.33,0.925853
2891.74,0.925724
2894.15,0.926474
2896.56,0.92498
2898.97,0.92365
2901.38,0.922393
2903.79,0.922341
2906.2,0.923042
2908.61,0.923536
2911.02,0.922625
2913.43,0.922311
2915.84,0.923401
2918.25,0.923593
2920.66,0.921427
2923.07,0.919925
2925.48,0.920491
2927.89,0.921565
2930.31,0.922155
2932.72,0.923826
2935.13,0.924331
2937.54,0.925934
2939.95,0.928059
2942.36,0.928691
2944.77,0.928186
2947.18,0.927857
2949.59,0.926537
2952,0.925319
2954.41,0.923433
2956.82,0.921115
2959.23,0.91823
2961.64,0.914282
2964.05,0.910132
2966.46,0.9064
2968.87,0.903473
2971.29,0.899335
2973.7,0.895621
2976.11,0.894442
2978.52,0.893118
2980.93,0.890815
2983.34,0.890818
2985.75,0.892674
2988.16,0.895062
2990.57,0.897563
2992.98,0.900455
2995.39,0.903331
2997.8,0.905177
3000.21,0.907566
3002.62,0.910756
3005.03,0.914501
3007.44,0.915949
3009.85,0.915976
3012.27,0.916736
3014.68,0.918689
3017.09,0.919659
3019.5,0.920193
3021.91,0.920491
3024.32,0.921395
3026.73,0.922336
3029.14,0.923065
3031.55,0.922645
3033.96,0.923211
3036.37,0.925025
3038.78,0.925571
3041.19,0.92635
3043.6,0.926652
3046.01,0.926696
3048.42,0.927751
3050.83,0.927435
3053.24,0.92781
3055.66,0.927297
3058.07,0.927275
3060.48,0.927652
3062.89,0.927265
3065.3,0.925176
3067.71,0.921751
3070.12,0.920453
3072.53,0.920204
3074.94,0.92012
3077.35,0.920767
3079.76,0.920952
3082.17,0.920032
3084.58,0.920678
3086.99,0.921415
3089.4,0.921866
3091.81,0.921881
3094.22,0.920885
3096.64,0.920038
3099.05,0.920722
3101.46,0.92099
3103.87,0.921398
3106.28,0.924069
3108.69,0.924298
3111.1,0.923859
3113.51,0.924669
3115.92,0.92476
3118.33,0.923729
3120.74,0.92364
3123.15,0.92418
3125.56,0.92359
3127.97,0.923528
3130.38,0.925724
3132.79,0.926664
3135.2,0.926081
3137.62,0.927152
3140.03,0.927263
3142.44,0.926936
3144.85,0.926179
3147.26,0.927395
3149.67,0.927398
3152.08,0.928031
3154.49,0.929177
3156.9,0.92885
3159.31,0.929144
3161.72,0.930044
3164.13,0.929337
3166.54,0.92886
3168.95,0.929834
3171.36,0.931338
3173.77,0.931368
3176.18,0.9306
3178.6,0.93032
3181.01,0.930332
3183.42,0.930742
3185.83,0.931014
3188.24,0.932458
3190.65,0.931811
3193.06,0.932077
3195.47,0.932412
3197.88,0.931384
3200.29,0.931438
3202.7,0.931422
3205.11,0.93185
3207.52,0.93158
3209.93,0.931155
3212.34,0.930725
3214.75,0.929751
3217.16,0.930258
3219.58,0.930853
3221.99,0.929922
3224.4,0.930505
3226.81,0.93029
3229.22,0.93061
3231.63,0.932696
3234.04,0.93348
3236.45,0.931609
3238.86,0.930933
3241.27,0.930332
3243.68,0.93062
3246.09,0.931842
3248.5,0.930839
3250.91,0.930174
3253.32,0.93075
3255.73,0.932044
3258.14,0.930501
3260.56,0.931489
3262.97,0.933549
3265.38,0.932917
3267.79,0.931092
3270.2,0.931358
3272.61,0.932082
3275.02,0.931288
3277.43,0.931304
3279.84,0.931123
3282.25,0.932114
3284.66,0.932082
3287.07,0.932375
3289.48,0.932488
3291.89,0.932675
3294.3,0.932515
3296.71,0.931504
3299.12,0.930861
3301.54,0.933003
3303.95,0.933806
3306.36,0.931512
3308.77,0.931223
3311.18,0.931055
3313.59,0.931936
3316,0.933373
3318.41,0.932813
3320.82,0.932089
3323.23,0.931235
3325.64,0.932333
3328.05,0.932688
3330.46,0.932462
3332.87,0.934604
3335.28,0.932944
3337.69,0.931532
3340.1,0.931518
3342.51,0.932619
3344.93,0.933298
3347.34,0.934474
3349.75,0.933721
3352.16,0.933964
3354.57,0.933208
3356.98,0.930994
3359.39,0.932322
3361.8,0.933717
3364.21,0.93372
3366.62,0.933137
3369.03,0.933909
3371.44,0.934242
3373.85,0.934073
3376.26,0.93445
3378.67,0.934729
3381.08,0.935525
3383.49,0.934487
3385.91,0.932814
3388.32,0.932869
3390.73,0.932718
3393.14,0.93369
3395.55,0.934112
3397.96,0.933535
3400.37,0.932952
3402.78,0.934171
3405.19,0.935441
3407.6,0.935978
3410.01,0.936255
3412.42,0.932696
3414.83,0.931399
3417.24,0.934785
3419.65,0.933822
3422.06,0.931566
3424.47,0.932771
3426.89,0.932894
3429.3,0.931594
3431.71,0.931719
3434.12,0.932095
3436.53,0.932365
3438.94,0.931166
3441.35,0.930266
3443.76,0.929476
3446.17,0.927884
3448.58,0.926052
3450.99,0.926049
3453.4,0.926151
3455.81,0.927119
3458.22,0.930812
3460.63,0.931713
3463.04,0.92996
3465.45,0.92991
3467.87,0.930831
3470.28,0.932193
3472.69,0.932545
3475.1,0.934109
3477.51,0.933663
3479.92,0.935202
3482.33,0.933051
3484.74,0.933062
3487.15,0.935747
3489.56,0.936244
3491.97,0.936581
3494.38,0.936849
3496.79,0.937713
3499.2,0.936889
3501.61,0.937001
3504.02,0.934667
3506.43,0.933851
3508.85,0.935811
3511.26,0.937375
3513.67,0.937331
3516.08,0.936157
3518.49,0.936394
3520.9,0.937541
3523.31,0.937602
3525.72,0.937166
3528.13,0.938317
3530.54,0.939739
3532.95,0.938755
3535.36,0.936514
3537.77,0.937963
3540.18,0.938287
3542.59,0.936274
3545,0.931943
3547.41,0.93127
3549.83,0.932222
3552.24,0.934175
3554.65,0.936068
3557.06,0.937031
3559.47,0.936038
3561.88,0.933509
3564.29,0.933375
3566.7,0.934804
3569.11,0.934323
3571.52,0.93438
3573.93,0.933534
3576.34,0.934421
3578.75,0.935052
3581.16,0.934496
3583.57,0.933908
3585.98,0.933773
3588.39,0.937505
3590.81,0.939412
3593.22,0.938991
3595.63,0.93656
3598.04,0.938705
3600.45,0.937827
3602.86,0.93375
3605.27,0.932663
3607.68,0.933995
3610.09,0.934695
3612.5,0.934454
3614.91,0.934534
3617.32,0.936438
3619.73,0.936757
3622.14,0.936068
3624.55,0.934494
3626.96,0.933315
3629.37,0.93292
3631.78,0.931602
3634.2,0.933586
3636.61,0.933994
3639.02,0.935731
3641.43,0.937356
3643.84,0.935384
3646.25,0.933792
3648.66,0.935384
3651.07,0.936565
3653.48,0.934163
3655.89,0.935507
3658.3,0.934418
3660.71,0.934791
3663.12,0.935482
3665.53,0.936242
3667.94,0.939434
3670.35,0.939553
3672.76,0.942062
3675.18,0.942943
3677.59,0.942315
3680,0.942306
3682.41,0.939096
3684.82,0.940673
3687.23,0.942482
3689.64,0.943518
3692.05,0.945745
3694.46,0.939229
3696.87,0.942841
3699.28,0.94468
3701.69,0.941829
3704.1,0.940852
3706.51,0.941901
3708.92,0.945727
3711.33,0.948648
3713.74,0.945828
3716.16,0.943598
3718.57,0.938972
3720.98,0.937681
3723.39,0.942249
3725.8,0.939171
3728.21,0.936838
3730.62,0.943117
3733.03,0.947629
3735.44,0.948567
3737.85,0.946317
3740.26,0.94288
3742.67,0.944188
3745.08,0.94261
3747.49,0.940084
3749.9,0.940962
3752.31,0.939699
3754.72,0.939975
3757.14,0.940972
3759.55,0.942674
3761.96,0.939732
3764.37,0.939237
3766.78,0.946007
3769.19,0.942538
3771.6,0.942395
3774.01,0.944211
3776.42,0.940867
3778.83,0.938731
3781.24,0.939242
3783.65,0.939572
3786.06,0.938025
3788.47,0.935943
3790.88,0.93878
3793.29,0.943746
3795.7,0.943709
3798.12,0.940526
3800.53,0.941681
3802.94,0.940619
3805.35,0.94184
3807.76,0.945294
3810.17,0.94604
3812.58,0.946299
3814.99,0.94429
3817.4,0.946667
3819.81,0.944734
3822.22,0.94083
3824.63,0.945125
3827.04,0.946151
3829.45,0.945916
3831.86,0.942985
3834.27,0.940291
3836.68,0.940621
3839.1,0.942332
3841.51,0.941156
3843.92,0.948793
3846.33,0.942295
3848.74,0.941492
3851.15,0.941141
3853.56,0.941681
3855.97,0.942447
3858.38,0.942315
3860.79,0.943345
3863.2,0.945409
3865.61,0.943134
3868.02,0.942267
3870.43,0.941203
3872.84,0.938502
3875.25,0.945978
3877.66,0.946122
3880.08,0.94144
3882.49,0.93968
3884.9,0.939803
3887.31,0.940151
3889.72,0.939948
3892.13,0.943349
3894.54,0.943358
3896.95,0.943773
3899.36,0.942534
3901.77,0.939476
3904.18,0.941648
3906.59,0.94022
3909,0.940345
3911.41,0.941406
3913.82,0.941555
3916.23,0.94119
3918.64,0.939366
3921.05,0.938955
3923.47,0.940618
3925.88,0.940071
3928.29,0.939931
3930.7,0.938281
3933.11,0.938707
3935.52,0.939551
3937.93,0.939847
3940.34,0.939156
3942.75,0.939097
3945.16,0.938742
3947.57,0.940878
3949.98,0.939543
3952.39,0.937846
3954.8,0.939066
3957.21,0.93834
3959.62,0.939932
3962.03,0.940672
3964.45,0.941504
3966.86,0.940134
3969.27,0.939201
3971.68,0.939325
3974.09,0.939428
3976.5,0.940534
3978.91,0.939619
3981.32,0.938239
3983.73,0.936646
3986.14,0.938945
3988.55,0.940215
3990.96,0.940286
3993.37,0.936796
3995.78,0.938431
3998.19,0.940017
4000.12,0.937966