File: FTIR_data/PETG.csv
449.815,0.484552
452.225,0.457517
454.636,0.477845
457.047,0.488468
459.457,0.488634
461.868,0.506777
464.278,0.509104
466.689,0.494775
469.1,0.481812
471.51,0.488263
473.921,0.5024
476.331,0.505946
478.742,0.498436
481.152,0.497586
483.563,0.49608
485.974,0.480379
488.384,0.479574
490.795,0.486284
493.205,0.489228
495.616,0.47499
498.027,0.451231
500.437,0.452193
502.848,0.44863
505.258,0.461
507.669,0.484451
510.079,0.495361
512.49,0.506672
514.901,0.520864
517.311,0.52469
519.722,0.528459
522.132,0.526364
524.543,0.533674
526.954,0.535152
529.364,0.539069
531.775,0.540545
534.185,0.543377
536.596,0.542826
539.006,0.549104
541.417,0.550638
543.828,0.558008
546.238,0.558597
548.649,0.559467
551.059,0.563185
553.47,0.567711
555.881,0.574386
558.291,0.580863
560.702,0.587092
563.112,0.582124
565.523,0.5859
567.933,0.589092
570.344,0.587212
572.755,0.582794
575.165,0.583671
577.576,0.583977
579.986,0.588472
582.397,0.589532
584.808,0.59239
587.218,0.590478
589.629,0.587372
592.039,0.586175
594.45,0.584024
596.86,0.581109
599.271,0.572782
601.682,0.571456
604.092,0.579688
606.503,0.588967
608.913,0.592505
611.324,0.596183
613.735,0.596845
616.145,0.596154
618.556,0.596943
620.966,0.5969
623.377,0.597721
625.787,0.596816
628.198,0.593525
630.609,0.591295
633.019,0.581217
635.43,0.570551
637.84,0.581298
640.251,0.590422
642.662,0.58863
645.072,0.5861
647.483,0.582395
649.893,0.579432
652.304,0.578333
654.714,0.579685
657.125,0.577942
659.536,0.572439
661.946,0.570119
664.357,0.570645
666.767,0.571957
669.178,0.565905
671.589,0.53423
673.999,0.541836
676.41,0.552307
678.82,0.545034
681.231,0.534286
683.641,0.527112
686.052,0.528072
688.463,0.527147
690.873,0.526203
693.284,0.519397
695.694,0.50988
698.105,0.496174
700.516,0.478286
702.926,0.459388
705.337,0.43942
707.747,0.417384
710.158,0.398065
712.568,0.379243
714.979,0.35539
717.39,0.323475
719.8,0.272201
722.211,0.194675
724.621,0.100779
727.032,0.0235864
729.443,0.00271308
731.853,0.0685936
734.264,0.18398
736.674,0.304853
739.085,0.425791
741.495,0.54695
743.906,0.651511
746.317,0.716992
748.727,0.746275
751.138,0.752106
753.548,0.750077
755.959,0.745238
758.37,0.73839
760.78,0.733123
763.191,0.727832
765.601,0.722674
768.012,0.715964
770.422,0.709087
772.833,0.701817
775.244,0.695578
777.654,0.688421
780.065,0.682962
782.475,0.678459
784.886,0.671547
787.297,0.664176
789.707,0.649817
792.118,0.634399
794.528,0.616102
796.939,0.60362
799.349,0.613856
801.76,0.641688
804.171,0.657143
806.581,0.656076
808.992,0.651271
811.402,0.647657
813.813,0.646693
816.224,0.646894
818.634,0.645777
821.045,0.645359
823.455,0.644571
825.866,0.6423
828.276,0.639439
830.687,0.636845
833.098,0.633759
835.508,0.629526
837.919,0.623676
840.329,0.617471
842.74,0.612432
845.151,0.606175
847.561,0.601823
849.972,0.599937
852.382,0.598817
854.793,0.599242
857.203,0.598876
859.614,0.596971
862.025,0.594714
864.435,0.588426
866.846,0.577671
869.256,0.560544
871.667,0.532246
874.078,0.49614
876.488,0.466385
878.899,0.467224
881.309,0.500034
883.72,0.548091
886.13,0.59118
888.541,0.620922
890.952,0.635974
893.362,0.643411
895.773,0.645685
898.183,0.645338
900.594,0.644268
903.005,0.643894
905.415,0.644903
907.826,0.650092
910.236,0.658816
912.647,0.666279
915.057,0.67242
917.468,0.675049
919.879,0.673419
922.289,0.67097
924.7,0.668157
927.11,0.664826
929.521,0.661765
931.932,0.657589
934.342,0.653931
936.753,0.650234
939.163,0.646417
941.574,0.641052
943.984,0.633193
946.395,0.623264
948.806,0.61073
951.216,0.596954
953.627,0.583616
956.037,0.572816
958.448,0.563161
960.859,0.554861
963.269,0.556473
965.68,0.56547
968.09,0.571811
970.501,0.573592
972.911,0.571874
975.322,0.572457
977.733,0.576806
980.143,0.586831
982.554,0.59935
984.964,0.608645
987.375,0.614384
989.786,0.615492
992.196,0.615505
994.607,0.617084
997.017,0.61733
999.428,0.613998
1001.84,0.608442
1004.25,0.600495
1006.66,0.588276
1009.07,0.572364
1011.48,0.54966
1013.89,0.515661
1016.3,0.463575
1018.71,0.386088
1021.12,0.309108
1023.53,0.308289
1025.94,0.400508
1028.35,0.513618
1030.77,0.583049
1033.18,0.606764
1035.59,0.606097
1038,0.600177
1040.41,0.59299
1042.82,0.584947
1045.23,0.576249
1047.64,0.568423
1050.05,0.565723
1052.46,0.567531
1054.87,0.57014
1057.28,0.572284
1059.69,0.570362
1062.1,0.564208
1064.51,0.553088
1066.92,0.534707
1069.33,0.514387
1071.75,0.491875
1074.16,0.461632
1076.57,0.428399
1078.98,0.391059
1081.39,0.346698
1083.8,0.299965
1086.21,0.255169
1088.62,0.219619
1091.03,0.194526
1093.44,0.176008
1095.85,0.159632
1098.26,0.145308
1100.67,0.139523
1103.08,0.146238
1105.49,0.167333
1107.9,0.201752
1110.31,0.247178
1112.73,0.298339
1115.14,0.334373
1117.55,0.339108
1119.96,0.326691
1122.37,0.323179
1124.78,0.339703
1127.19,0.373173
1129.6,0.416578
1132.01,0.46283
1134.42,0.505613
1136.83,0.543711
1139.24,0.577622
1141.65,0.609604
1144.06,0.638322
1146.47,0.663618
1148.88,0.684286
1151.29,0.701454
1153.71,0.713632
1156.12,0.721734
1158.53,0.728184
1160.94,0.735093
1163.35,0.740573
1165.76,0.744024
1168.17,0.742957
1170.58,0.738247
1172.99,0.727601
1175.4,0.711249
1177.81,0.696928
1180.22,0.691434
1182.63,0.696068
1185.04,0.706047
1187.45,0.715324
1189.86,0.720017
1192.27,0.717961
1194.69,0.710773
1197.1,0.699411
1199.51,0.685723
1201.92,0.671118
1204.33,0.655273
1206.74,0.638479
1209.15,0.620014
1211.56,0.600304
1213.97,0.578623
1216.38,0.555145
1218.79,0.527847
1221.2,0.497183
1223.61,0.463223
1226.02,0.428198
1228.43,0.39628
1230.84,0.363468
1233.25,0.322921
1235.67,0.274383
1238.08,0.221158
1240.49,0.170395
1242.9,0.128352
1245.31,0.100653
1247.72,0.0917122
1250.13,0.0972888
1252.54,0.113309
1254.95,0.135334
1257.36,0.157287
1259.77,0.174096
1262.18,0.183707
1264.59,0.187645
1267,0.192151
1269.41,0.203766
1271.82,0.225769
1274.23,0.254774
1276.64,0.286486
1279.06,0.31814
1281.47,0.349831
1283.88,0.38144
1286.29,0.413784
1288.7,0.44707
1291.11,0.480857
1293.52,0.512972
1295.93,0.542835
1298.34,0.570631
1300.75,0.599113
1303.16,0.631584
1305.57,0.665627
1307.98,0.694899
1310.39,0.716964
1312.8,0.734711
1315.21,0.751435
1317.62,0.767114
1320.04,0.777696
1322.45,0.784417
1324.86,0.792744
1327.27,0.80353
1329.68,0.815093
1332.09,0.82334
1334.5,0.829024
1336.91,0.826517
1339.32,0.810654
1341.73,0.783536
1344.14,0.7595
1346.55,0.753885
1348.96,0.767991
1351.37,0.789282
1353.78,0.810497
1356.19,0.825347
1358.6,0.833841
1361.02,0.837807
1363.43,0.838429
1365.84,0.837125
1368.25,0.832538
1370.66,0.822253
1373.07,0.807875
1375.48,0.795279
1377.89,0.788043
1380.3,0.785813
1382.71,0.786592
1385.12,0.793159
1387.53,0.800027
1389.94,0.804638
1392.35,0.803474
1394.76,0.798788
1397.17,0.794006
1399.58,0.789147
1402,0.78542
1404.41,0.776148
1406.82,0.76306
1409.23,0.737818
1411.64,0.700982
1414.05,0.65404
1416.46,0.637638
1418.87,0.675675
1421.28,0.746879
1423.69,0.80238
1426.1,0.831822
1428.51,0.850103
1430.92,0.857027
1433.33,0.85597
1435.74,0.850822
1438.15,0.843905
1440.56,0.832895
1442.98,0.820154
1445.39,0.808579
1447.8,0.801161
1450.21,0.791682
1452.62,0.776087
1455.03,0.761036
1457.44,0.749012
1459.85,0.746772
1462.26,0.755082
1464.67,0.770479
1467.08,0.783984
1469.49,0.79321
1471.9,0.799927
1474.31,0.8108
1476.72,0.822355
1479.13,0.829958
1481.54,0.837331
1483.96,0.844138
1486.37,0.850067
1488.78,0.85777
1491.19,0.864065
1493.6,0.869027
1496.01,0.870927
1498.42,0.872432
1500.83,0.872407
1503.24,0.867332
1505.65,0.858393
1508.06,0.84557
1510.47,0.821176
1512.88,0.800866
1515.29,0.81467
1517.7,0.847785
1520.11,0.862553
1522.52,0.866514
1524.94,0.869129
1527.35,0.870213
1529.76,0.866101
1532.17,0.863994
1534.58,0.866229
1536.99,0.866918
1539.4,0.866055
1541.81,0.866675
1544.22,0.868699
1546.63,0.867833
1549.04,0.866287
1551.45,0.869063
1553.86,0.868987
1556.27,0.868338
1558.68,0.868305
1561.09,0.869662
1563.5,0.86529
1565.91,0.860662
1568.33,0.859886
1570.74,0.860261
1573.15,0.858321
1575.56,0.855494
1577.97,0.851711
1580.38,0.842177
1582.79,0.830192
1585.2,0.818535
1587.61,0.820026
1590.02,0.831664
1592.43,0.847067
1594.84,0.855484
1597.25,0.858789
1599.66,0.85691
1602.07,0.855671
1604.48,0.858332
1606.89,0.857457
1609.31,0.85626
1611.72,0.853381
1614.13,0.849034
1616.54,0.840472
1618.95,0.834498
1621.36,0.833351
1623.77,0.834581
1626.18,0.84034
1628.59,0.845986
1631,0.844722
1633.41,0.841567
1635.82,0.842248
1638.23,0.840286
1640.64,0.840137
1643.05,0.836592
1645.46,0.83634
1647.87,0.833476
1650.29,0.832552
1652.7,0.829463
1655.11,0.827658
1657.52,0.826968
1659.93,0.821388
1662.34,0.818263
1664.75,0.810353
1667.16,0.805119
1669.57,0.798539
1671.98,0.790135
1674.39,0.780297
1676.8,0.76961
1679.21,0.755656
1681.62,0.742567
1684.03,0.729413
1686.44,0.713808
1688.85,0.702216
1691.27,0.68721
1693.68,0.670435
1696.09,0.646648
1698.5,0.630664
1700.91,0.606699
1703.32,0.576316
1705.73,0.524285
1708.14,0.475665
1710.55,0.393245
1712.96,0.321145
1715.37,0.252206
1717.78,0.189441
1720.19,0.152143
1722.6,0.140232
1725.01,0.150025
1727.42,0.172144
1729.83,0.214461
1732.25,0.265299
1734.66,0.320702
1737.07,0.380275
1739.48,0.440707
1741.89,0.496398
1744.3,0.562149
1746.71,0.630086
1749.12,0.691538
1751.53,0.753478
1753.94,0.801353
1756.35,0.838461
1758.76,0.859251
1761.17,0.876052
1763.58,0.887738
1765.99,0.89718
1768.4,0.903895
1770.81,0.903816
1773.23,0.90401
1775.64,0.905627
1778.05,0.904491
1780.46,0.904625
1782.87,0.906617
1785.28,0.909844
1787.69,0.911086
1790.1,0.911572
1792.51,0.908955
1794.92,0.908829
1797.33,0.911417
1799.74,0.913932
1802.15,0.913521
1804.56,0.915338
1806.97,0.916806
1809.38,0.914206
1811.79,0.913769
1814.21,0.913693
1816.62,0.913793
1819.03,0.914192
1821.44,0.916811
1823.85,0.916814
1826.26,0.916611
1828.67,0.91709
1831.08,0.914532
1833.49,0.913672
1835.9,0.912663
1838.31,0.913776
1840.72,0.915964
1843.13,0.91654
1845.54,0.917184
1847.95,0.919786
1850.36,0.920933
1852.77,0.920803
1855.18,0.921602
1857.6,0.921699
1860.01,0.919488
1862.42,0.920581
1864.83,0.924019
1867.24,0.923188
1869.65,0.922213
1872.06,0.923466
1874.47,0.924157
1876.88,0.924148
1879.29,0.921572
1881.7,0.919448
1884.11,0.922086
1886.52,0.922647
1888.93,0.922195
1891.34,0.921061
1893.75,0.922425
1896.16,0.923976
1898.58,0.923271
1900.99,0.923979
1903.4,0.922857
1905.81,0.920803
1908.22,0.921384
1910.63,0.919592
1913.04,0.917925
1915.45,0.921126
1917.86,0.923112
1920.27,0.920938
1922.68,0.921044
1925.09,0.921949
1927.5,0.921223
1929.91,0.920684
1932.32,0.920361
1934.73,0.919724
1937.14,0.920029
1939.56,0.916216
1941.97,0.9165
1944.38,0.91739
1946.79,0.919985
1949.2,0.919176
1951.61,0.915721
1954.02,0.916484
1956.43,0.914659
1958.84,0.912919
1961.25,0.917868
1963.66,0.920355
1966.07,0.922755
1968.48,0.92515
1970.89,0.924236
1973.3,0.920638
1975.71,0.916595
1978.12,0.928646
1980.54,0.936151
1982.95,0.935631
1985.36,0.933846
1987.77,0.932313
1990.18,0.928488
1992.59,0.920083
1995,0.91709
1997.41,0.918414
1999.82,0.92198
2002.23,0.923039
2004.64,0.91621
2007.05,0.911407
2009.46,0.911999
2011.87,0.914628
2014.28,0.912907
2016.69,0.906098
2019.1,0.90251
2021.52,0.89923
2023.93,0.905147
2026.34,0.904855
2028.75,0.900444
2031.16,0.900336
2033.57,0.905688
2035.98,0.900662
2038.39,0.903022
2040.8,0.899177
2043.21,0.902397
2045.62,0.902596
2048.03,0.90355
2050.44,0.906701
2052.85,0.907739
2055.26,0.903701
2057.67,0.90168
2060.08,0.902046
2062.5,0.907341
2064.91,0.911172
2067.32,0.908255
2069.73,0.908075
2072.14,0.907643
2074.55,0.904797
2076.96,0.906048
2079.37,0.908026
2081.78,0.909662
2084.19,0.909823
2086.6,0.910817
2089.01,0.912717
2091.42,0.91447
2093.83,0.915843
2096.24,0.915369
2098.65,0.915409
2101.06,0.915912
2103.48,0.916295
2105.89,0.917663
2108.3,0.918917
2110.71,0.918144
2113.12,0.916292
2115.53,0.918685
2117.94,0.921942
2120.35,0.923585
2122.76,0.926232
2125.17,0.924703
2127.58,0.926036
2129.99,0.926929
2132.4,0.925296
2134.81,0.925901
2137.22,0.9314
2139.63,0.932943
2142.04,0.934976
2144.45,0.939798
2146.87,0.937499
2149.28,0.939268
2151.69,0.944649
2154.1,0.948989
2156.51,0.946062
2158.92,0.953312
2161.33,0.965717
2163.74,0.971915
2166.15,0.979534
2168.56,0.994819
2170.97,0.998314
2173.38,0.989507
2175.79,0.978255
2178.2,0.958292
2180.61,0.961931
2183.02,0.964136
2185.43,0.963187
2187.85,0.96014
2190.26,0.958248
2192.67,0.952721
2195.08,0.948692
2197.49,0.947612
2199.9,0.940811
2202.31,0.935026
2204.72,0.93783
2207.13,0.93577
2209.54,0.93206
2211.95,0.932107
2214.36,0.932255
2216.77,0.936999
2219.18,0.93571
2221.59,0.930497
2224,0.924306
2226.41,0.916639
2228.83,0.917217
2231.24,0.918976
2233.65,0.915693
2236.06,0.915366
2238.47,0.913525
2240.88,0.908961
2243.29,0.913101
2245.7,0.912558
2248.11,0.906976
2250.52,0.909173
2252.93,0.913848
2255.34,0.914065
2257.75,0.914022
2260.16,0.912974
2262.57,0.914702
2264.98,0.917747
2267.39,0.914961
2269.81,0.91284
2272.22,0.911266
2274.63,0.912116
2277.04,0.913672
2279.45,0.913124
2281.86,0.915517
2284.27,0.913206
2286.68,0.912725
2289.09,0.912551
2291.5,0.914041
2293.91,0.914419
2296.32,0.916919
2298.73,0.916148
2301.14,0.91635
2303.55,0.915227
2305.96,0.914501
2308.37,0.911637
2310.79,0.909134
2313.2,0.906353
2315.61,0.905039
2318.02,0.901054
2320.43,0.893971
2322.84,0.888959
2325.25,0.882958
2327.66,0.876633
2330.07,0.869329
2332.48,0.858727
2334.89,0.848796
2337.3,0.845461
2339.71,0.845526
2342.12,0.840909
2344.53,0.837359
2346.94,0.836515
2349.35,0.837833
2351.77,0.836047
2354.18,0.831249
2356.59,0.82726
2359,0.835855
2361.41,0.852549
2363.82,0.847444
2366.23,0.824894
2368.64,0.805413
2371.05,0.791465
2373.46,0.787051
2375.87,0.791551
2378.28,0.802475
2380.69,0.816731
2383.1,0.833898
2385.51,0.850614
2387.92,0.868586
2390.33,0.883398
2392.75,0.896255
2395.16,0.908957
2397.57,0.917665
2399.98,0.920157
2402.39,0.920537
2404.8,0.920966
2407.21,0.920198
2409.62,0.921305
2412.03,0.923646
2414.44,0.925062
2416.85,0.924244
2419.26,0.925448
2421.67,0.927739
2424.08,0.927197
2426.49,0.928249
2428.9,0.930383
2431.31,0.931049
2433.72,0.930773
2436.14,0.929777
2438.55,0.929933
2440.96,0.93007
2443.37,0.929681
2445.78,0.929604
2448.19,0.932217
2450.6,0.933614
2453.01,0.933049
2455.42,0.934054
2457.83,0.934784
2460.24,0.935881
2462.65,0.936452
2465.06,0.936405
2467.47,0.937398
2469.88,0.938181
2472.29,0.937901
2474.7,0.937191
2477.12,0.936221
2479.53,0.93631
2481.94,0.937148
2484.35,0.936207
2486.76,0.936943
2489.17,0.936764
2491.58,0.937254
2493.99,0.936691
2496.4,0.93662
2498.81,0.936183
2501.22,0.936531
2503.63,0.93619
2506.04,0.937536
2508.45,0.937418
2510.86,0.936661
2513.27,0.937308
2515.68,0.937347
2518.1,0.935979
2520.51,0.937496
2522.92,0.938735
2525.33,0.937401
2527.74,0.935676
2530.15,0.935145
2532.56,0.935439
2534.97,0.934884
2537.38,0.93531
2539.79,0.936125
2542.2,0.935457
2544.61,0.933912
2547.02,0.933265
2549.43,0.93275
2551.84,0.933097
2554.25,0.933473
2556.66,0.931756
2559.08,0.93114
2561.49,0.931861
2563.9,0.93205
2566.31,0.930863
2568.72,0.930999
2571.13,0.931309
2573.54,0.929606
2575.95,0.928053
2578.36,0.928209
2580.77,0.927927
2583.18,0.927497
2585.59,0.926752
2588,0.926152
2590.41,0.924003
2592.82,0.923352
2595.23,0.925468
2597.64,0.923707
2600.06,0.921708
2602.47,0.921333
2604.88,0.920956
2607.29,0.920603
2609.7,0.922034
2612.11,0.922236
2614.52,0.920278
2616.93,0.919475
2619.34,0.918567
2621.75,0.917783
2624.16,0.917402
2626.57,0.916649
2628.98,0.916787
2631.39,0.917459
2633.8,0.918118
2636.21,0.917813
2638.62,0.916685
2641.04,0.917978
2643.45,0.917344
2645.86,0.917046
2648.27,0.917653
2650.68,0.918616
2653.09,0.91916
2655.5,0.918957
2657.91,0.920094
2660.32,0.921211
2662.73,0.921078
2665.14,0.921115
2667.55,0.921802
2669.96,0.922526
2672.37,0.922181
2674.78,0.922574
2677.19,0.922899
2679.6,0.923911
2682.02,0.92483
2684.43,0.924766
2686.84,0.924857
2689.25,0.925064
2691.66,0.925478
2694.07,0.925629
2696.48,0.925308
2698.89,0.926368
2701.3,0.92678
2703.71,0.927151
2706.12,0.928185
2708.53,0.929066
2710.94,0.929819
2713.35,0.92961
2715.76,0.92966
2718.17,0.930021
2720.58,0.930054
2722.99,0.929913
2725.41,0.930532
2727.82,0.930872
2730.23,0.93062
2732.64,0.931171
2735.05,0.931011
2737.46,0.931515
2739.87,0.931652
2742.28,0.931224
2744.69,0.930716
2747.1,0.931782
2749.51,0.931694
2751.92,0.93084
2754.33,0.93177
2756.74,0.932294
2759.15,0.932167
2761.56,0.932023
2763.97,0.931039
2766.39,0.931027
2768.8,0.931006
2771.21,0.930523
2773.62,0.930808
2776.03,0.931351
2778.44,0.931683
2780.85,0.931389
2783.26,0.931652
2785.67,0.931744
2788.08,0.931003
2790.49,0.931299
2792.9,0.931601
2795.31,0.931311
2797.72,0.931357
2800.13,0.931049
2802.54,0.93003
2804.95,0.929238
2807.37,0.929929
2809.78,0.929777
2812.19,0.929349
2814.6,0.929445
2817.01,0.928609
2819.42,0.927148
2821.83,0.92672
2824.24,0.927225
2826.65,0.926806
2829.06,0.927213
2831.47,0.927489
2833.88,0.927315
2836.29,0.927281
2838.7,0.92601
2841.11,0.924246
2843.52,0.92319
2845.93,0.922149
2848.35,0.920778
2850.76,0.91814
2853.17,0.915815
2855.58,0.911765
2857.99,0.906305
2860.4,0.899229
2862.81,0.891023
2865.22,0.88348
2867.63,0.878098
2870.04,0.87551
2872.45,0.877147
2874.86,0.881678
2877.27,0.886896
2879.68,0.892591
2882.09,0.89676
2884.5,0.901993
2886.91,0.904538
2889.33,0.905241
2891.74,0.906096
2894.15,0.906457
2896.56,0.904562
2898.97,0.902009
2901.38,0.898745
2903.79,0.895605
2906.2,0.892712
2908.61,0.891379
2911.02,0.888654
2913.43,0.886174
2915.84,0.886603
2918.25,0.885708
2920.66,0.88148
2923.07,0.877713
2925.48,0.873904
2927.89,0.86991
2930.31,0.864567
2932.72,0.858677
2935.13,0.852596
2937.54,0.847878
2939.95,0.847482
2942.36,0.846365
2944.77,0.845815
2947.18,0.846496
2949.59,0.847704
2952,0.851077
2954.41,0.853933
2956.82,0.8572
2959.23,0.863444
2961.64,0.86677
2964.05,0.869978
2966.46,0.873774
2968.87,0.878223
2971.29,0.882094
2973.7,0.887395
2976.11,0.892654
2978.52,0.896668
2980.93,0.900252
2983.34,0.904517
2985.75,0.908722
2988.16,0.911784
2990.57,0.915311
2992.98,0.919057
2995.39,0.922587
2997.8,0.924672
3000.21,0.926574
3002.62,0.929294
3005.03,0.931828
3007.44,0.933229
3009.85,0.93412
3012.27,0.934349
3014.68,0.934763
3017.09,0.937121
3019.5,0.938863
3021.91,0.937162
3024.32,0.93676
3026.73,0.936849
3029.14,0.937878
3031.55,0.938118
3033.96,0.937853
3036.37,0.93856
3038.78,0.938222
3041.19,0.938263
3043.6,0.938467
3046.01,0.938272
3048.42,0.939422
3050.83,0.939525
3053.24,0.940034
3055.66,0.938708
3058.07,0.938753
3060.48,0.9394
3062.89,0.938522
3065.3,0.937035
3067.71,0.93495
3070.12,0.934268
3072.53,0.934611
3074.94,0.934656
3077.35,0.935133
3079.76,0.934449
3082.17,0.932957
3084.58,0.932781
3086.99,0.933225
3089.4,0.935203
3091.81,0.935318
3094.22,0.933554
3096.64,0.933314
3099.05,0.933913
3101.46,0.934346
3103.87,0.935197
3106.28,0.937332
3108.69,0.938083
3111.1,0.937325
3113.51,0.937012
3115.92,0.937414
3118.33,0.936838
3120.74,0.937497
3123.15,0.938029
3125.56,0.938442
3127.97,0.939469
3130.38,0.94115
3132.79,0.940776
3135.2,0.940664
3137.62,0.941532
3140.03,0.94124
3142.44,0.941798
3144.85,0.941009
3147.26,0.941721
3149.67,0.94225
3152.08,0.941819
3154.49,0.941991
3156.9,0.943655
3159.31,0.944417
3161.72,0.942482
3164.13,0.942663
3166.54,0.942643
3168.95,0.942283
3171.36,0.943198
3173.77,0.944358
3176.18,0.946077
3178.6,0.944513
3181.01,0.943907
3183.42,0.945052
3185.83,0.944704
3188.24,0.945825
3190.65,0.945219
3193.06,0.946239
3195.47,0.945629
3197.88,0.944076
3200.29,0.943847
3202.7,0.944794
3205.11,0.945896
3207.52,0.944939
3209.93,0.945657
3212.34,0.945074
3214.75,0.943293
3217.16,0.943286
3219.58,0.945463
3221.99,0.945281
3224.4,0.945756
3226.81,0.94501
3229.22,0.943873
3231.63,0.945562
3234.04,0.946319
3236.45,0.945799
3238.86,0.946429
3241.27,0.946043
3243.68,0.944796
3246.09,0.943877
3248.5,0.945068
3250.91,0.945006
3253.32,0.944881
3255.73,0.946231
3258.14,0.944986
3260.56,0.944922
3262.97,0.946389
3265.38,0.945313
3267.79,0.944493
3270.2,0.945424
3272.61,0.945767
3275.02,0.944525
3277.43,0.94602
3279.84,0.945408
3282.25,0.945929
3284.66,0.946
3287.07,0.945673
3289.48,0.945923
3291.89,0.946383
3294.3,0.947176
3296.71,0.944938
3299.12,0.943592
3301.54,0.946053
3303.95,0.946149
3306.36,0.944521
3308.77,0.942499
3311.18,0.942258
3313.59,0.943619
3316,0.944921
3318.41,0.945549
3320.82,0.945352
3323.23,0.944453
3325.64,0.944398
3328.05,0.945477
3330.46,0.945172
3332.87,0.946221
3335.28,0.947444
3337.69,0.946329
3340.1,0.94627
3342.51,0.947798
3344.93,0.948187
3347.34,0.947991
3349.75,0.947379
3352.16,0.948323
3354.57,0.947009
3356.98,0.943554
3359.39,0.946003
3361.8,0.947853
3364.21,0.94909
3366.62,0.948018
3369.03,0.947897
3371.44,0.947661
3373.85,0.947499
3376.26,0.947243
3378.67,0.948008
3381.08,0.949051
3383.49,0.948269
3385.91,0.949496
3388.32,0.94853
3390.73,0.94781
3393.14,0.947922
3395.55,0.948444
3397.96,0.948773
3400.37,0.948485
3402.78,0.94942
3405.19,0.949012
3407.6,0.948309
3410.01,0.948585
3412.42,0.946009
3414.83,0.948057
3417.24,0.951236
3419.65,0.950531
3422.06,0.950415
3424.47,0.950551
3426.89,0.947947
3429.3,0.9461
3431.71,0.945472
3434.12,0.946768
3436.53,0.946753
3438.94,0.946539
3441.35,0.947033
3443.76,0.946461
3446.17,0.945727
3448.58,0.943928
3450.99,0.943069
3453.4,0.943255
3455.81,0.945102
3458.22,0.948162
3460.63,0.947314
3463.04,0.947874
3465.45,0.947452
3467.87,0.946315
3470.28,0.946784
3472.69,0.949059
3475.1,0.951939
3477.51,0.950816
3479.92,0.951484
3482.33,0.950624
3484.74,0.949495
3487.15,0.947714
3489.56,0.949724
3491.97,0.95026
3494.38,0.9504
3496.79,0.950387
3499.2,0.948897
3501.61,0.948031
3504.02,0.945873
3506.43,0.946033
3508.85,0.947996
3511.26,0.949396
3513.67,0.950525
3516.08,0.948651
3518.49,0.948056
3520.9,0.946919
3523.31,0.948041
3525.72,0.947996
3528.13,0.950606
3530.54,0.951522
3532.95,0.951741
3535.36,0.95142
3537.77,0.95068
3540.18,0.950244
3542.59,0.949114
3545,0.944907
3547.41,0.946002
3549.83,0.945161
3552.24,0.947841
3554.65,0.948357
3557.06,0.947788
3559.47,0.948076
3561.88,0.946642
3564.29,0.945011
3566.7,0.943949
3569.11,0.94302
3571.52,0.942172
3573.93,0.944014
3576.34,0.942816
3578.75,0.945156
3581.16,0.950707
3583.57,0.947581
3585.98,0.942802
3588.39,0.943216
3590.81,0.94553
3593.22,0.947533
3595.63,0.94811
3598.04,0.948837
3600.45,0.948525
3602.86,0.945186
3605.27,0.944271
3607.68,0.944902
3610.09,0.944388
3612.5,0.944592
3614.91,0.940351
3617.32,0.942558
3619.73,0.944044
3622.14,0.942271
3624.55,0.939787
3626.96,0.939926
3629.37,0.938717
3631.78,0.939167
3634.2,0.942438
3636.61,0.941742
3639.02,0.943992
3641.43,0.945393
3643.84,0.945897
3646.25,0.942384
3648.66,0.936974
3651.07,0.935055
3653.48,0.939398
3655.89,0.943027
3658.3,0.945616
3660.71,0.949259
3663.12,0.95252
3665.53,0.950136
3667.94,0.947569
3670.35,0.947005
3672.76,0.949472
3675.18,0.952376
3677.59,0.949883
3680,0.952303
3682.41,0.951513
3684.82,0.94932
3687.23,0.95127
3689.64,0.95425
3692.05,0.957385
3694.46,0.953663
3696.87,0.951492
3699.28,0.949245
3701.69,0.949565
3704.1,0.952376
3706.51,0.955666
3708.92,0.95849
3711.33,0.955745
3713.74,0.955795
3716.16,0.957032
3718.57,0.953461
3720.98,0.951856
3723.39,0.951435
3725.8,0.946442
3728.21,0.946342
3730.62,0.949755
3733.03,0.954671
3735.44,0.953295
3737.85,0.954711
3740.26,0.951122
3742.67,0.948486
3745.08,0.943645
3747.49,0.938485
3749.9,0.941963
3752.31,0.946552
3754.72,0.944823
3757.14,0.942375
3759.55,0.944098
3761.96,0.940942
3764.37,0.943774
3766.78,0.950079
3769.19,0.952206
3771.6,0.955112
3774.01,0.955974
3776.42,0.955226
3778.83,0.95056
3781.24,0.946698
3783.65,0.94933
3786.06,0.953866
3788.47,0.954332
3790.88,0.956805
3793.29,0.957595
3795.7,0.958264
3798.12,0.949863
3800.53,0.946953
3802.94,0.950437
3805.35,0.952569
3807.76,0.956341
3810.17,0.959537
3812.58,0.957122
3814.99,0.952826
3817.4,0.95588
3819.81,0.951624
3822.22,0.949181
3824.63,0.952478
3827.04,0.958758
3829.45,0.953172
3831.86,0.951702
3834.27,0.951038
3836.68,0.952343
3839.1,0.955295
3841.51,0.957184
3843.92,0.962985
3846.33,0.957398
3848.74,0.956361
3851.15,0.9554
3853.56,0.956722
3855.97,0.955693
3858.38,0.955233
3860.79,0.954637
3863.2,0.956188
3865.61,0.955409
3868.02,0.956007
3870.43,0.957703
3872.84,0.954333
3875.25,0.957261
3877.66,0.953443
3880.08,0.952933
3882.49,0.95203
3884.9,0.957135
3887.31,0.957335
3889.72,0.955599
3892.13,0.956422
3894.54,0.952983
3896.95,0.957381
3899.36,0.958208
3901.77,0.954241
3904.18,0.954763
3906.59,0.955824
3909,0.949865
3911.41,0.950088
3913.82,0.95118
3916.23,0.95657
3918.64,0.955608
3921.05,0.955748
3923.47,0.953744
3925.88,0.95029
3928.29,0.949074
3930.7,0.949534
3933.11,0.952022
3935.52,0.954077
3937.93,0.956428
3940.34,0.953617
3942.75,0.950305
3945.16,0.950967
3947.57,0.954318
3949.98,0.95559
3952.39,0.952673
3954.8,0.952431
3957.21,0.95201
3959.62,0.955042
3962.03,0.953747
3964.45,0.95531
3966.86,0.95708
3969.27,0.958414
3971.68,0.959036
3974.09,0.957197
3976.5,0.955957
3978.91,0.955662
3981.32,0.9545
3983.73,0.953479
3986.14,0.957221
3988.55,0.959402
3990.96,0.958003
3993.37,0.956181
3995.78,0.958776
3998.19,0.960199
4000.12,0.95897