File: FTIR_data/PLA.csv
449.815,0.233147
452.225,0.146874
454.636,0.150271
457.047,0.225689
459.457,0.292023
461.868,0.28002
464.278,0.246004
466.689,0.209394
469.1,0.226072
471.51,0.308687
473.921,0.39294
476.331,0.465911
478.742,0.503543
481.152,0.539906
483.563,0.575376
485.974,0.597386
488.384,0.614351
490.795,0.651648
493.205,0.66845
495.616,0.654727
498.027,0.640593
500.437,0.6536
502.848,0.648972
505.258,0.654941
507.669,0.669853
510.079,0.680071
512.49,0.701024
514.901,0.711677
517.311,0.713783
519.722,0.714168
522.132,0.701938
524.543,0.697619
526.954,0.677033
529.364,0.663171
531.775,0.631155
534.185,0.617325
536.596,0.601766
539.006,0.612372
541.417,0.640968
543.828,0.680624
546.238,0.713758
548.649,0.746765
551.059,0.780221
553.47,0.794009
555.881,0.795909
558.291,0.804723
560.702,0.811193
563.112,0.813601
565.523,0.825009
567.933,0.824697
570.344,0.826148
572.755,0.82353
575.165,0.825763
577.576,0.819646
579.986,0.820751
582.397,0.817652
584.808,0.816034
587.218,0.815394
589.629,0.814469
592.039,0.806575
594.45,0.810697
596.86,0.819408
599.271,0.809129
601.682,0.802994
604.092,0.80573
606.503,0.807807
608.913,0.797937
611.324,0.799165
613.735,0.799844
616.145,0.789859
618.556,0.783047
620.966,0.784488
623.377,0.783109
625.787,0.776586
628.198,0.772773
630.609,0.767383
633.019,0.76102
635.43,0.75799
637.84,0.7537
640.251,0.749219
642.662,0.745094
645.072,0.740276
647.483,0.733658
649.893,0.724833
652.304,0.718783
654.714,0.71291
657.125,0.700303
659.536,0.685688
661.946,0.668228
664.357,0.643919
666.767,0.604646
669.178,0.547948
671.589,0.484608
673.999,0.503273
676.41,0.55808
678.82,0.604322
681.231,0.627381
683.641,0.637503
686.052,0.645811
688.463,0.645723
690.873,0.644603
693.284,0.637616
695.694,0.637372
698.105,0.649601
700.516,0.661835
702.926,0.672063
705.337,0.684421
707.747,0.694013
710.158,0.697384
712.568,0.699248
714.979,0.700999
717.39,0.709179
719.8,0.722078
722.211,0.734959
724.621,0.746753
727.032,0.760473
729.443,0.771084
731.853,0.776064
734.264,0.770752
736.674,0.756398
739.085,0.737957
741.495,0.720575
743.906,0.707449
746.317,0.700067
748.727,0.690743
751.138,0.676663
753.548,0.662757
755.959,0.643695
758.37,0.63017
760.78,0.629068
763.191,0.64332
765.601,0.669398
768.012,0.691326
770.422,0.711718
772.833,0.727633
775.244,0.741707
777.654,0.753101
780.065,0.761656
782.475,0.770286
784.886,0.779911
787.297,0.787232
789.707,0.792286
792.118,0.795376
794.528,0.798791
796.939,0.802914
799.349,0.801763
801.76,0.801444
804.171,0.803021
806.581,0.806284
808.992,0.806802
811.402,0.8081
813.813,0.80825
816.224,0.80713
818.634,0.805715
821.045,0.809358
823.455,0.809753
825.866,0.807707
828.276,0.809038
830.687,0.811252
833.098,0.811375
835.508,0.811348
837.919,0.811153
840.329,0.807273
842.74,0.801425
845.151,0.789991
847.561,0.775491
849.972,0.765187
852.382,0.757923
854.793,0.752802
857.203,0.745951
859.614,0.728926
862.025,0.704833
864.435,0.678147
866.846,0.654242
869.256,0.637103
871.667,0.625961
874.078,0.622794
876.488,0.628471
878.899,0.64875
881.309,0.67759
883.72,0.708154
886.13,0.73365
888.541,0.750532
890.952,0.756751
893.362,0.755791
895.773,0.752036
898.183,0.749011
900.594,0.747149
903.005,0.74505
905.415,0.74329
907.826,0.741673
910.236,0.737875
912.647,0.734215
915.057,0.7317
917.468,0.730197
919.879,0.726769
922.289,0.722896
924.7,0.71987
927.11,0.718028
929.521,0.717261
931.932,0.717055
934.342,0.716474
936.753,0.714537
939.163,0.711387
941.574,0.707365
943.984,0.700986
946.395,0.693261
948.806,0.684381
951.216,0.673113
953.627,0.660549
956.037,0.647571
958.448,0.63454
960.859,0.622401
963.269,0.615765
965.68,0.615015
968.09,0.615219
970.501,0.608875
972.911,0.596243
975.322,0.58075
977.733,0.563126
980.143,0.542246
982.554,0.520901
984.964,0.498867
987.375,0.474106
989.786,0.446364
992.196,0.418395
994.607,0.389998
997.017,0.359082
999.428,0.32552
1001.84,0.291584
1004.25,0.25635
1006.66,0.218908
1009.07,0.18121
1011.48,0.141902
1013.89,0.106056
1016.3,0.074839
1018.71,0.0524665
1021.12,0.0430114
1023.53,0.0493418
1025.94,0.0690114
1028.35,0.0967478
1030.77,0.124962
1033.18,0.149083
1035.59,0.163624
1038,0.17043
1040.41,0.171859
1042.82,0.17161
1045.23,0.173794
1047.64,0.183598
1050.05,0.202323
1052.46,0.22962
1054.87,0.263869
1057.28,0.301218
1059.69,0.335265
1062.1,0.363073
1064.51,0.379138
1066.92,0.379551
1069.33,0.362609
1071.75,0.32697
1074.16,0.274353
1076.57,0.215387
1078.98,0.155463
1081.39,0.101085
1083.8,0.0565853
1086.21,0.0222739
1088.62,0.00291434
1091.03,0.00155547
1093.44,0.0158467
1095.85,0.0405985
1098.26,0.0684906
1100.67,0.101818
1103.08,0.139101
1105.49,0.178132
1107.9,0.217659
1110.31,0.257986
1112.73,0.298773
1115.14,0.33516
1117.55,0.363585
1119.96,0.381491
1122.37,0.386994
1124.78,0.381629
1127.19,0.366746
1129.6,0.345216
1132.01,0.323883
1134.42,0.3126
1136.83,0.318797
1139.24,0.34131
1141.65,0.378981
1144.06,0.432088
1146.47,0.494121
1148.88,0.557613
1151.29,0.615806
1153.71,0.662445
1156.12,0.6926
1158.53,0.706899
1160.94,0.712637
1163.35,0.709882
1165.76,0.699005
1168.17,0.680041
1170.58,0.653315
1172.99,0.611422
1175.4,0.547201
1177.81,0.459276
1180.22,0.352083
1182.63,0.244896
1185.04,0.165628
1187.45,0.134226
1189.86,0.147514
1192.27,0.186388
1194.69,0.235839
1197.1,0.28468
1199.51,0.326478
1201.92,0.360004
1204.33,0.384662
1206.74,0.402181
1209.15,0.413102
1211.56,0.419611
1213.97,0.423511
1216.38,0.428223
1218.79,0.438749
1221.2,0.459875
1223.61,0.487891
1226.02,0.518899
1228.43,0.550003
1230.84,0.581317
1233.25,0.609563
1235.67,0.633412
1238.08,0.653367
1240.49,0.668538
1242.9,0.679524
1245.31,0.688747
1247.72,0.697257
1250.13,0.701386
1252.54,0.705001
1254.95,0.707105
1257.36,0.705569
1259.77,0.701918
1262.18,0.697116
1264.59,0.689898
1267,0.682364
1269.41,0.676399
1271.82,0.674311
1274.23,0.677497
1276.64,0.683913
1279.06,0.691564
1281.47,0.70341
1283.88,0.7184
1286.29,0.733581
1288.7,0.751177
1291.11,0.767405
1293.52,0.779067
1295.93,0.78682
1298.34,0.788751
1300.75,0.785219
1303.16,0.780705
1305.57,0.776316
1307.98,0.771726
1310.39,0.769937
1312.8,0.769884
1315.21,0.771629
1317.62,0.773841
1320.04,0.774556
1322.45,0.775408
1324.86,0.776294
1327.27,0.777521
1329.68,0.777726
1332.09,0.775974
1334.5,0.775035
1336.91,0.770683
1339.32,0.764921
1341.73,0.758134
1344.14,0.749931
1346.55,0.742474
1348.96,0.732835
1351.37,0.720608
1353.78,0.706587
1356.19,0.689537
1358.6,0.672524
1361.02,0.654795
1363.43,0.640634
1365.84,0.634967
1368.25,0.634151
1370.66,0.640897
1373.07,0.647795
1375.48,0.654242
1377.89,0.666925
1380.3,0.682691
1382.71,0.68962
1385.12,0.67477
1387.53,0.648306
1389.94,0.635566
1392.35,0.643456
1394.76,0.670606
1397.17,0.710874
1399.58,0.743159
1402,0.779645
1404.41,0.809411
1406.82,0.824675
1409.23,0.837505
1411.64,0.845391
1414.05,0.850465
1416.46,0.849291
1418.87,0.848296
1421.28,0.849901
1423.69,0.845984
1426.1,0.841825
1428.51,0.848534
1430.92,0.846271
1433.33,0.844049
1435.74,0.837392
1438.15,0.83222
1440.56,0.825085
1442.98,0.809801
1445.39,0.790125
1447.8,0.759448
1450.21,0.716587
1452.62,0.668788
1455.03,0.632751
1457.44,0.611451
1459.85,0.599173
1462.26,0.596041
1464.67,0.613687
1467.08,0.653858
1469.49,0.683176
1471.9,0.720665
1474.31,0.76797
1476.72,0.793053
1479.13,0.808256
1481.54,0.832846
1483.96,0.844748
1486.37,0.847385
1488.78,0.850201
1491.19,0.855052
1493.6,0.856544
1496.01,0.853542
1498.42,0.856933
1500.83,0.861451
1503.24,0.855481
1505.65,0.856672
1508.06,0.860713
1510.47,0.860426
1512.88,0.855397
1515.29,0.86182
1517.7,0.868222
1520.11,0.862807
1522.52,0.859537
1524.94,0.863417
1527.35,0.862415
1529.76,0.858272
1532.17,0.864135
1534.58,0.866078
1536.99,0.865554
1539.4,0.860518
1541.81,0.862619
1544.22,0.869398
1546.63,0.860339
1549.04,0.863317
1551.45,0.872624
1553.86,0.874491
1556.27,0.870218
1558.68,0.86548
1561.09,0.867625
1563.5,0.865983
1565.91,0.857675
1568.33,0.872237
1570.74,0.872511
1573.15,0.863869
1575.56,0.864258
1577.97,0.864579
1580.38,0.863198
1582.79,0.856911
1585.2,0.862688
1587.61,0.870052
1590.02,0.865625
1592.43,0.866022
1594.84,0.866403
1597.25,0.865305
1599.66,0.861367
1602.07,0.860876
1604.48,0.863397
1606.89,0.861506
1609.31,0.858407
1611.72,0.858464
1614.13,0.860426
1616.54,0.854232
1618.95,0.851611
1621.36,0.855388
1623.77,0.85387
1626.18,0.855884
1628.59,0.858022
1631,0.856069
1633.41,0.857585
1635.82,0.854462
1638.23,0.855981
1640.64,0.856387
1643.05,0.848577
1645.46,0.855768
1647.87,0.855992
1650.29,0.855354
1652.7,0.852188
1655.11,0.848011
1657.52,0.853537
1659.93,0.844946
1662.34,0.848865
1664.75,0.85736
1667.16,0.850929
1669.57,0.847764
1671.98,0.849082
1674.39,0.850628
1676.8,0.844287
1679.21,0.844041
1681.62,0.847561
1684.03,0.844384
1686.44,0.842713
1688.85,0.839626
1691.27,0.836617
1693.68,0.838736
1696.09,0.836095
1698.5,0.830243
1700.91,0.831761
1703.32,0.82063
1705.73,0.813558
1708.14,0.807383
1710.55,0.80489
1712.96,0.795758
1715.37,0.782724
1717.78,0.77142
1720.19,0.754439
1722.6,0.733482
1725.01,0.711706
1727.42,0.694033
1729.83,0.675392
1732.25,0.648064
1734.66,0.621022
1737.07,0.588457
1739.48,0.545805
1741.89,0.487637
1744.3,0.425123
1746.71,0.34583
1749.12,0.269482
1751.53,0.20327
1753.94,0.154036
1756.35,0.12339
1758.76,0.115261
1761.17,0.132002
1763.58,0.15264
1765.99,0.180257
1768.4,0.238441
1770.81,0.294189
1773.23,0.365359
1775.64,0.416004
1778.05,0.467652
1780.46,0.509816
1782.87,0.553582
1785.28,0.593447
1787.69,0.625556
1790.1,0.663357
1792.51,0.700458
1794.92,0.73289
1797.33,0.765846
1799.74,0.788092
1802.15,0.805441
1804.56,0.820722
1806.97,0.827288
1809.38,0.830843
1811.79,0.835217
1814.21,0.837998
1816.62,0.841879
1819.03,0.842776
1821.44,0.845795
1823.85,0.846446
1826.26,0.845569
1828.67,0.849411
1831.08,0.852283
1833.49,0.85183
1835.9,0.851441
1838.31,0.852806
1840.72,0.858507
1843.13,0.859004
1845.54,0.858117
1847.95,0.862568
1850.36,0.862069
1852.77,0.858037
1855.18,0.861281
1857.6,0.862952
1860.01,0.860431
1862.42,0.864026
1864.83,0.867923
1867.24,0.866556
1869.65,0.865654
1872.06,0.864894
1874.47,0.867625
1876.88,0.867195
1879.29,0.864358
1881.7,0.865177
1884.11,0.866874
1886.52,0.865665
1888.93,0.864043
1891.34,0.863275
1893.75,0.866048
1896.16,0.866447
1898.58,0.863735
1900.99,0.865258
1903.4,0.862947
1905.81,0.859177
1908.22,0.860783
1910.63,0.863226
1913.04,0.861443
1915.45,0.863843
1917.86,0.866326
1920.27,0.863644
1922.68,0.861131
1925.09,0.859373
1927.5,0.859721
1929.91,0.863735
1932.32,0.865303
1934.73,0.864777
1937.14,0.863965
1939.56,0.856649
1941.97,0.854947
1944.38,0.854222
1946.79,0.856855
1949.2,0.859416
1951.61,0.859253
1954.02,0.854118
1956.43,0.851937
1958.84,0.857005
1961.25,0.862826
1963.66,0.863809
1966.07,0.858782
1968.48,0.854619
1970.89,0.850274
1973.3,0.851956
1975.71,0.856157
1978.12,0.863901
1980.54,0.854648
1982.95,0.840053
1985.36,0.839181
1987.77,0.845019
1990.18,0.853186
1992.59,0.854268
1995,0.849527
1997.41,0.857186
1999.82,0.865675
2002.23,0.872039
2004.64,0.870441
2007.05,0.867097
2009.46,0.877712
2011.87,0.880551
2014.28,0.878621
2016.69,0.87152
2019.1,0.858886
2021.52,0.877377
2023.93,0.8928
2026.34,0.892931
2028.75,0.879394
2031.16,0.881309
2033.57,0.885821
2035.98,0.885392
2038.39,0.892779
2040.8,0.893315
2043.21,0.900155
2045.62,0.890186
2048.03,0.888231
2050.44,0.888737
2052.85,0.89083
2055.26,0.896015
2057.67,0.894876
2060.08,0.89491
2062.5,0.898209
2064.91,0.894426
2067.32,0.890014
2069.73,0.888523
2072.14,0.892089
2074.55,0.892207
2076.96,0.890495
2079.37,0.890228
2081.78,0.888362
2084.19,0.888188
2086.6,0.888745
2089.01,0.887781
2091.42,0.888693
2093.83,0.889354
2096.24,0.89057
2098.65,0.886884
2101.06,0.88745
2103.48,0.892432
2105.89,0.893032
2108.3,0.891348
2110.71,0.888481
2113.12,0.888157
2115.53,0.89157
2117.94,0.895161
2120.35,0.896396
2122.76,0.893596
2125.17,0.893169
2127.58,0.895154
2129.99,0.895337
2132.4,0.892776
2134.81,0.894766
2137.22,0.903092
2139.63,0.906904
2142.04,0.909568
2144.45,0.910887
2146.87,0.910459
2149.28,0.915792
2151.69,0.922705
2154.1,0.926601
2156.51,0.9308
2158.92,0.942314
2161.33,0.944918
2163.74,0.948386
2166.15,0.957582
2168.56,0.978756
2170.97,0.999719
2173.38,0.989897
2175.79,0.971241
2178.2,0.954725
2180.61,0.950561
2183.02,0.94954
2185.43,0.94954
2187.85,0.943178
2190.26,0.945534
2192.67,0.945956
2195.08,0.939387
2197.49,0.938244
2199.9,0.938541
2202.31,0.934497
2204.72,0.932411
2207.13,0.937938
2209.54,0.941299
2211.95,0.938151
2214.36,0.940057
2216.77,0.948469
2219.18,0.943549
2221.59,0.935455
2224,0.933043
2226.41,0.933839
2228.83,0.936329
2231.24,0.932308
2233.65,0.926311
2236.06,0.923191
2238.47,0.922636
2240.88,0.919857
2243.29,0.920823
2245.7,0.918646
2248.11,0.915725
2250.52,0.916365
2252.93,0.917377
2255.34,0.921087
2257.75,0.924267
2260.16,0.922373
2262.57,0.921629
2264.98,0.921541
2267.39,0.916144
2269.81,0.912076
2272.22,0.916404
2274.63,0.916681
2277.04,0.911905
2279.45,0.906641
2281.86,0.903925
2284.27,0.898779
2286.68,0.893763
2289.09,0.893215
2291.5,0.893597
2293.91,0.8914
2296.32,0.893575
2298.73,0.893307
2301.14,0.89229
2303.55,0.89201
2305.96,0.892578
2308.37,0.889195
2310.79,0.887185
2313.2,0.886027
2315.61,0.884913
2318.02,0.87994
2320.43,0.874072
2322.84,0.871586
2325.25,0.868723
2327.66,0.865705
2330.07,0.858727
2332.48,0.85324
2334.89,0.847284
2337.3,0.839608
2339.71,0.838719
2342.12,0.837143
2344.53,0.836327
2346.94,0.83711
2349.35,0.839684
2351.77,0.840279
2354.18,0.839942
2356.59,0.83958
2359,0.844163
2361.41,0.850143
2363.82,0.838697
2366.23,0.826498
2368.64,0.818241
2371.05,0.809134
2373.46,0.807276
2375.87,0.809912
2378.28,0.816206
2380.69,0.82162
2383.1,0.831234
2385.51,0.84512
2387.92,0.853678
2390.33,0.861137
2392.75,0.870549
2395.16,0.878619
2397.57,0.883056
2399.98,0.883625
2402.39,0.884224
2404.8,0.887981
2407.21,0.888773
2409.62,0.889223
2412.03,0.893444
2414.44,0.898139
2416.85,0.898961
2419.26,0.901052
2421.67,0.902229
2424.08,0.900802
2426.49,0.899379
2428.9,0.899679
2431.31,0.899197
2433.72,0.899955
2436.14,0.899553
2438.55,0.89818
2440.96,0.896905
2443.37,0.893577
2445.78,0.893685
2448.19,0.895246
2450.6,0.894729
2453.01,0.894937
2455.42,0.896939
2457.83,0.897172
2460.24,0.897317
2462.65,0.896963
2465.06,0.897523
2467.47,0.900114
2469.88,0.901142
2472.29,0.900673
2474.7,0.901035
2477.12,0.89937
2479.53,0.898694
2481.94,0.897401
2484.35,0.896497
2486.76,0.896381
2489.17,0.89651
2491.58,0.89667
2493.99,0.897532
2496.4,0.899375
2498.81,0.89993
2501.22,0.899981
2503.63,0.900585
2506.04,0.901161
2508.45,0.901709
2510.86,0.901473
2513.27,0.901673
2515.68,0.901912
2518.1,0.902022
2520.51,0.900822
2522.92,0.902782
2525.33,0.902698
2527.74,0.899547
2530.15,0.901174
2532.56,0.901885
2534.97,0.901736
2537.38,0.901276
2539.79,0.902948
2542.2,0.903332
2544.61,0.902368
2547.02,0.901718
2549.43,0.900484
2551.84,0.901561
2554.25,0.901998
2556.66,0.901264
2559.08,0.900843
2561.49,0.901265
2563.9,0.901002
2566.31,0.899819
2568.72,0.901598
2571.13,0.902794
2573.54,0.901706
2575.95,0.90084
2578.36,0.902031
2580.77,0.901898
2583.18,0.902563
2585.59,0.902582
2588,0.904037
2590.41,0.901958
2592.82,0.901289
2595.23,0.902626
2597.64,0.902074
2600.06,0.902136
2602.47,0.90146
2604.88,0.89917
2607.29,0.897462
2609.7,0.897767
2612.11,0.898485
2614.52,0.898094
2616.93,0.89785
2619.34,0.896739
2621.75,0.896043
2624.16,0.895676
2626.57,0.894047
2628.98,0.893221
2631.39,0.893508
2633.8,0.892724
2636.21,0.891757
2638.62,0.891006
2641.04,0.88983
2643.45,0.887863
2645.86,0.887533
2648.27,0.886511
2650.68,0.88525
2653.09,0.88437
2655.5,0.88468
2657.91,0.884615
2660.32,0.884486
2662.73,0.884463
2665.14,0.884407
2667.55,0.885075
2669.96,0.884807
2672.37,0.883874
2674.78,0.884072
2677.19,0.884946
2679.6,0.885314
2682.02,0.88606
2684.43,0.886432
2686.84,0.886945
2689.25,0.887007
2691.66,0.886902
2694.07,0.886133
2696.48,0.886106
2698.89,0.886206
2701.3,0.885709
2703.71,0.885584
2706.12,0.886254
2708.53,0.88643
2710.94,0.886136
2713.35,0.886534
2715.76,0.886706
2718.17,0.886039
2720.58,0.884938
2722.99,0.8849
2725.41,0.885104
2727.82,0.884482
2730.23,0.883944
2732.64,0.884199
2735.05,0.88407
2737.46,0.88482
2739.87,0.884897
2742.28,0.883854
2744.69,0.883858
2747.1,0.884599
2749.51,0.883717
2751.92,0.88266
2754.33,0.883326
2756.74,0.883684
2759.15,0.882966
2761.56,0.882779
2763.97,0.883349
2766.39,0.883544
2768.8,0.882764
2771.21,0.882611
2773.62,0.883004
2776.03,0.882939
2778.44,0.882213
2780.85,0.882156
2783.26,0.881981
2785.67,0.882051
2788.08,0.882579
2790.49,0.882866
2792.9,0.882316
2795.31,0.881498
2797.72,0.881434
2800.13,0.881035
2802.54,0.879865
2804.95,0.87971
2807.37,0.880188
2809.78,0.879486
2812.19,0.87878
2814.6,0.880241
2817.01,0.880198
2819.42,0.879548
2821.83,0.878665
2824.24,0.87833
2826.65,0.877434
2829.06,0.878081
2831.47,0.878124
2833.88,0.877029
2836.29,0.877422
2838.7,0.876708
2841.11,0.87571
2843.52,0.875976
2845.93,0.875162
2848.35,0.875286
2850.76,0.875427
2853.17,0.876005
2855.58,0.876615
2857.99,0.876974
2860.4,0.877012
2862.81,0.877285
2865.22,0.876514
2867.63,0.874812
2870.04,0.874347
2872.45,0.875092
2874.86,0.876154
2877.27,0.876585
2879.68,0.876823
2882.09,0.874781
2884.5,0.874409
2886.91,0.873826
2889.33,0.872327
2891.74,0.872251
2894.15,0.870804
2896.56,0.868223
2898.97,0.868316
2901.38,0.8695
2903.79,0.871074
2906.2,0.872634
2908.61,0.874062
2911.02,0.872837
2913.43,0.870883
2915.84,0.871003
2918.25,0.873696
2920.66,0.873073
2923.07,0.871911
2925.48,0.871498
2927.89,0.871196
2930.31,0.868862
2932.72,0.865997
2935.13,0.86338
2937.54,0.862194
2939.95,0.863431
2942.36,0.86227
2944.77,0.858496
2947.18,0.854851
2949.59,0.851261
2952,0.847667
2954.41,0.842241
2956.82,0.835653
2959.23,0.83017
2961.64,0.824228
2964.05,0.823253
2966.46,0.825945
2968.87,0.830104
2971.29,0.833728
2973.7,0.838541
2976.11,0.843343
2978.52,0.844025
2980.93,0.844893
2983.34,0.848648
2985.75,0.853104
2988.16,0.854299
2990.57,0.855512
2992.98,0.856106
2995.39,0.85577
2997.8,0.852104
3000.21,0.848524
3002.62,0.845789
3005.03,0.840628
3007.44,0.833749
3009.85,0.826609
3012.27,0.823109
3014.68,0.823811
3017.09,0.826051
3019.5,0.829653
3021.91,0.834509
3024.32,0.839881
3026.73,0.844458
3029.14,0.84914
3031.55,0.853153
3033.96,0.856054
3036.37,0.85968
3038.78,0.863132
3041.19,0.865097
3043.6,0.866584
3046.01,0.867108
3048.42,0.867465
3050.83,0.868684
3053.24,0.870764
3055.66,0.871397
3058.07,0.871529
3060.48,0.871601
3062.89,0.872451
3065.3,0.873252
3067.71,0.872548
3070.12,0.872265
3072.53,0.872406
3074.94,0.872523
3077.35,0.873007
3079.76,0.872433
3082.17,0.872239
3084.58,0.872859
3086.99,0.872461
3089.4,0.872412
3091.81,0.873672
3094.22,0.872551
3096.64,0.871081
3099.05,0.871103
3101.46,0.872444
3103.87,0.873733
3106.28,0.873721
3108.69,0.874691
3111.1,0.874432
3113.51,0.87386
3115.92,0.872549
3118.33,0.872972
3120.74,0.874422
3123.15,0.873511
3125.56,0.872589
3127.97,0.872097
3130.38,0.87361
3132.79,0.873826
3135.2,0.872835
3137.62,0.872796
3140.03,0.872785
3142.44,0.873303
3144.85,0.872391
3147.26,0.874797
3149.67,0.874798
3152.08,0.872628
3154.49,0.872753
3156.9,0.873327
3159.31,0.874277
3161.72,0.873617
3164.13,0.871977
3166.54,0.87144
3168.95,0.872325
3171.36,0.874761
3173.77,0.87419
3176.18,0.87404
3178.6,0.873102
3181.01,0.875226
3183.42,0.875834
3185.83,0.874699
3188.24,0.875156
3190.65,0.874587
3193.06,0.875986
3195.47,0.87511
3197.88,0.872083
3200.29,0.870909
3202.7,0.872979
3205.11,0.874039
3207.52,0.873039
3209.93,0.873121
3212.34,0.872404
3214.75,0.871253
3217.16,0.871808
3219.58,0.872204
3221.99,0.871249
3224.4,0.8725
3226.81,0.872197
3229.22,0.871569
3231.63,0.871039
3234.04,0.872818
3236.45,0.871777
3238.86,0.871331
3241.27,0.872522
3243.68,0.873159
3246.09,0.874058
3248.5,0.873366
3250.91,0.871461
3253.32,0.872689
3255.73,0.876142
3258.14,0.872916
3260.56,0.872151
3262.97,0.874652
3265.38,0.874206
3267.79,0.874878
3270.2,0.876053
3272.61,0.873477
3275.02,0.872
3277.43,0.873799
3279.84,0.875666
3282.25,0.877322
3284.66,0.875841
3287.07,0.876342
3289.48,0.876809
3291.89,0.875486
3294.3,0.873537
3296.71,0.873997
3299.12,0.874405
3301.54,0.875948
3303.95,0.874728
3306.36,0.87484
3308.77,0.87665
3311.18,0.875902
3313.59,0.876299
3316,0.878239
3318.41,0.874684
3320.82,0.873686
3323.23,0.872173
3325.64,0.873279
3328.05,0.87585
3330.46,0.876007
3332.87,0.878079
3335.28,0.878104
3337.69,0.876365
3340.1,0.877392
3342.51,0.878616
3344.93,0.878039
3347.34,0.880012
3349.75,0.878822
3352.16,0.880045
3354.57,0.878415
3356.98,0.87519
3359.39,0.875446
3361.8,0.876193
3364.21,0.878792
3366.62,0.877955
3369.03,0.878665
3371.44,0.877042
3373.85,0.87596
3376.26,0.877048
3378.67,0.877874
3381.08,0.878328
3383.49,0.875571
3385.91,0.87442
3388.32,0.875822
3390.73,0.879365
3393.14,0.87889
3395.55,0.879031
3397.96,0.878141
3400.37,0.877643
3402.78,0.878159
3405.19,0.880798
3407.6,0.882585
3410.01,0.880885
3412.42,0.876813
3414.83,0.874898
3417.24,0.880449
3419.65,0.879073
3422.06,0.874732
3424.47,0.875878
3426.89,0.876597
3429.3,0.878682
3431.71,0.879428
3434.12,0.879392
3436.53,0.881403
3438.94,0.882672
3441.35,0.882768
3443.76,0.881028
3446.17,0.880531
3448.58,0.881125
3450.99,0.878571
3453.4,0.878831
3455.81,0.880912
3458.22,0.884206
3460.63,0.884528
3463.04,0.884894
3465.45,0.882028
3467.87,0.877914
3470.28,0.87987
3472.69,0.881362
3475.1,0.883554
3477.51,0.885125
3479.92,0.883809
3482.33,0.88126
3484.74,0.881145
3487.15,0.880967
3489.56,0.882342
3491.97,0.886281
3494.38,0.882433
3496.79,0.880679
3499.2,0.879783
3501.61,0.882178
3504.02,0.881388
3506.43,0.877234
3508.85,0.876728
3511.26,0.875879
3513.67,0.879551
3516.08,0.877954
3518.49,0.876255
3520.9,0.880009
3523.31,0.881697
3525.72,0.879301
3528.13,0.880815
3530.54,0.886067
3532.95,0.886134
3535.36,0.882979
3537.77,0.884335
3540.18,0.887545
3542.59,0.885701
3545,0.876481
3547.41,0.877428
3549.83,0.877641
3552.24,0.883468
3554.65,0.888716
3557.06,0.890432
3559.47,0.887776
3561.88,0.885775
3564.29,0.885113
3566.7,0.888052
3569.11,0.88702
3571.52,0.885155
3573.93,0.887445
3576.34,0.885058
3578.75,0.884935
3581.16,0.88511
3583.57,0.884125
3585.98,0.882059
3588.39,0.885037
3590.81,0.891002
3593.22,0.894177
3595.63,0.891041
3598.04,0.888202
3600.45,0.886648
3602.86,0.881875
3605.27,0.882356
3607.68,0.88792
3610.09,0.887702
3612.5,0.883505
3614.91,0.884787
3617.32,0.890823
3619.73,0.883899
3622.14,0.882327
3624.55,0.886734
3626.96,0.888772
3629.37,0.884922
3631.78,0.877554
3634.2,0.881997
3636.61,0.883957
3639.02,0.885862
3641.43,0.889668
3643.84,0.884675
3646.25,0.883793
3648.66,0.886368
3651.07,0.887619
3653.48,0.882999
3655.89,0.889179
3658.3,0.88485
3660.71,0.883421
3663.12,0.88248
3665.53,0.878778
3667.94,0.881222
3670.35,0.887207
3672.76,0.890437
3675.18,0.88523
3677.59,0.890482
3680,0.889151
3682.41,0.877433
3684.82,0.879578
3687.23,0.882214
3689.64,0.882591
3692.05,0.885193
3694.46,0.863501
3696.87,0.854812
3699.28,0.860424
3701.69,0.874318
3704.1,0.878054
3706.51,0.882183
3708.92,0.889331
3711.33,0.896964
3713.74,0.890738
3716.16,0.888856
3718.57,0.883498
3720.98,0.879512
3723.39,0.886706
3725.8,0.881631
3728.21,0.876692
3730.62,0.886035
3733.03,0.893016
3735.44,0.893758
3737.85,0.888247
3740.26,0.886168
3742.67,0.890017
3745.08,0.886555
3747.49,0.883729
3749.9,0.886993
3752.31,0.880931
3754.72,0.882621
3757.14,0.891541
3759.55,0.893364
3761.96,0.881764
3764.37,0.876269
3766.78,0.893436
3769.19,0.88575
3771.6,0.888024
3774.01,0.896691
3776.42,0.888472
3778.83,0.878214
3781.24,0.879121
3783.65,0.879962
3786.06,0.876394
3788.47,0.876656
3790.88,0.882299
3793.29,0.890712
3795.7,0.88531
3798.12,0.877868
3800.53,0.879702
3802.94,0.8841
3805.35,0.885635
3807.76,0.891636
3810.17,0.891515
3812.58,0.89027
3814.99,0.885721
3817.4,0.886335
3819.81,0.88757
3822.22,0.882794
3824.63,0.891847
3827.04,0.889416
3829.45,0.891637
3831.86,0.887657
3834.27,0.878495
3836.68,0.876402
3839.1,0.880887
3841.51,0.875874
3843.92,0.89454
3846.33,0.885454
3848.74,0.882967
3851.15,0.883245
3853.56,0.882945
3855.97,0.882244
3858.38,0.880976
3860.79,0.891903
3863.2,0.893224
3865.61,0.886278
3868.02,0.882268
3870.43,0.877521
3872.84,0.871893
3875.25,0.884404
3877.66,0.892382
3880.08,0.882602
3882.49,0.878899
3884.9,0.87947
3887.31,0.881097
3889.72,0.876975
3892.13,0.883574
3894.54,0.885328
3896.95,0.887255
3899.36,0.88085
3901.77,0.875595
3904.18,0.883338
3906.59,0.878841
3909,0.881415
3911.41,0.883014
3913.82,0.887665
3916.23,0.886494
3918.64,0.875265
3921.05,0.874772
3923.47,0.878144
3925.88,0.877562
3928.29,0.879766
3930.7,0.876741
3933.11,0.878483
3935.52,0.88026
3937.93,0.876959
3940.34,0.878802
3942.75,0.880022
3945.16,0.876942
3947.57,0.880295
3949.98,0.88086
3952.39,0.877146
3954.8,0.877454
3957.21,0.876399
3959.62,0.877784
3962.03,0.879108
3964.45,0.881078
3966.86,0.880962
3969.27,0.876394
3971.68,0.879417
3974.09,0.881242
3976.5,0.877436
3978.91,0.87608
3981.32,0.876339
3983.73,0.87488
3986.14,0.878343
3988.55,0.880479
3990.96,0.877995
3993.37,0.87408
3995.78,0.876582
3998.19,0.87883
4000.12,0.876214