File: FTIR_data/PMMA.csv
449.815,0.95828
452.225,0.990157
454.636,0.986927
457.047,0.938163
459.457,0.945993
461.868,0.957492
464.278,0.940305
466.689,0.932557
469.1,0.935257
471.51,0.926554
473.921,0.919998
476.331,0.927125
478.742,0.903942
481.152,0.880303
483.563,0.865822
485.974,0.864604
488.384,0.86676
490.795,0.890644
493.205,0.902777
495.616,0.922437
498.027,0.923694
500.437,0.914122
502.848,0.907263
505.258,0.911802
507.669,0.927941
510.079,0.926195
512.49,0.921854
514.901,0.930322
517.311,0.939022
519.722,0.952481
522.132,0.951398
524.543,0.953449
526.954,0.968865
529.364,0.984355
531.775,0.979248
534.185,0.969234
536.596,0.972641
539.006,0.981074
541.417,0.979926
543.828,0.979092
546.238,0.977688
548.649,0.977295
551.059,0.979824
553.47,0.972793
555.881,0.968978
558.291,0.967879
560.702,0.973896
563.112,0.979238
565.523,0.980356
567.933,0.971153
570.344,0.970956
572.755,0.97775
575.165,0.977387
577.576,0.976686
579.986,0.979795
582.397,0.984269
584.808,0.985439
587.218,0.984612
589.629,0.984864
592.039,0.985721
594.45,0.983405
596.86,0.982965
599.271,0.987044
601.682,0.982003
604.092,0.974408
606.503,0.97682
608.913,0.978047
611.324,0.981206
613.735,0.983844
616.145,0.983161
618.556,0.981123
620.966,0.981752
623.377,0.986249
625.787,0.983753
628.198,0.982255
630.609,0.984436
633.019,0.980651
635.43,0.978602
637.84,0.984403
640.251,0.984308
642.662,0.97812
645.072,0.978672
647.483,0.979483
649.893,0.977795
652.304,0.974114
654.714,0.977161
657.125,0.979145
659.536,0.976809
661.946,0.974575
664.357,0.974876
666.767,0.975316
669.178,0.971063
671.589,0.971018
673.999,0.985318
676.41,0.983354
678.82,0.979667
681.231,0.978141
683.641,0.979831
686.052,0.979885
688.463,0.976429
690.873,0.977804
693.284,0.977131
695.694,0.97793
698.105,0.975408
700.516,0.976933
702.926,0.974861
705.337,0.976417
707.747,0.976566
710.158,0.972926
712.568,0.970739
714.979,0.969562
717.39,0.966915
719.8,0.962431
722.211,0.956062
724.621,0.952929
727.032,0.946382
729.443,0.940292
731.853,0.933643
734.264,0.925336
736.674,0.917458
739.085,0.907486
741.495,0.897388
743.906,0.883551
746.317,0.854706
748.727,0.796729
751.138,0.719222
753.548,0.66707
755.959,0.666852
758.37,0.69942
760.78,0.740054
763.191,0.775258
765.601,0.809229
768.012,0.83356
770.422,0.852986
772.833,0.868639
775.244,0.883529
777.654,0.895578
780.065,0.901663
782.475,0.904408
784.886,0.907851
787.297,0.910939
789.707,0.910489
792.118,0.907361
794.528,0.903085
796.939,0.900509
799.349,0.898173
801.76,0.890722
804.171,0.882509
806.581,0.869064
808.992,0.857526
811.402,0.844199
813.813,0.833692
816.224,0.833492
818.634,0.840998
821.045,0.851015
823.455,0.853923
825.866,0.844327
828.276,0.826132
830.687,0.811424
833.098,0.811613
835.508,0.821804
837.919,0.815387
840.329,0.78156
842.74,0.740446
845.151,0.714909
847.561,0.716067
849.972,0.73597
852.382,0.760336
854.793,0.785664
857.203,0.805366
859.614,0.819786
862.025,0.835175
864.435,0.848208
866.846,0.857739
869.256,0.864184
871.667,0.871667
874.078,0.878571
876.488,0.883211
878.899,0.883828
881.309,0.884593
883.72,0.887152
886.13,0.889403
888.541,0.888702
890.952,0.886681
893.362,0.880858
895.773,0.8744
898.183,0.870559
900.594,0.864568
903.005,0.857716
905.415,0.848339
907.826,0.839729
910.236,0.830273
912.647,0.818571
915.057,0.810447
917.468,0.805221
919.879,0.802938
922.289,0.806115
924.7,0.812456
927.11,0.817225
929.521,0.817811
931.932,0.815976
934.342,0.813075
936.753,0.809039
939.163,0.804695
941.574,0.799246
943.984,0.791109
946.395,0.780574
948.806,0.770372
951.216,0.758104
953.627,0.745125
956.037,0.730848
958.448,0.714901
960.859,0.698944
963.269,0.68197
965.68,0.666151
968.09,0.651753
970.501,0.641881
972.911,0.640047
975.322,0.646273
977.733,0.656393
980.143,0.658805
982.554,0.651875
984.964,0.637783
987.375,0.619632
989.786,0.604707
992.196,0.596341
994.607,0.59821
997.017,0.608882
999.428,0.629011
1001.84,0.660698
1004.25,0.69986
1006.66,0.741702
1009.07,0.786623
1011.48,0.825921
1013.89,0.853101
1016.3,0.870973
1018.71,0.880413
1021.12,0.886195
1023.53,0.890092
1025.94,0.889414
1028.35,0.887837
1030.77,0.883685
1033.18,0.881199
1035.59,0.876525
1038,0.870035
1040.41,0.862014
1042.82,0.854083
1045.23,0.846293
1047.64,0.837478
1050.05,0.828549
1052.46,0.815321
1054.87,0.79838
1057.28,0.77249
1059.69,0.739305
1062.1,0.70392
1064.51,0.671331
1066.92,0.653489
1069.33,0.64698
1071.75,0.648759
1074.16,0.656507
1076.57,0.664561
1078.98,0.670557
1081.39,0.67415
1083.8,0.675001
1086.21,0.6752
1088.62,0.672881
1091.03,0.667053
1093.44,0.658657
1095.85,0.647367
1098.26,0.634784
1100.67,0.619901
1103.08,0.603257
1105.49,0.586298
1107.9,0.567823
1110.31,0.546669
1112.73,0.523125
1115.14,0.496865
1117.55,0.468761
1119.96,0.440241
1122.37,0.410087
1124.78,0.378331
1127.19,0.344723
1129.6,0.310829
1132.01,0.276161
1134.42,0.238087
1136.83,0.19748
1139.24,0.153196
1141.65,0.10732
1144.06,0.0658088
1146.47,0.0323329
1148.88,0.00888224
1151.29,0
1153.71,0.0121938
1156.12,0.0479708
1158.53,0.102885
1160.94,0.164839
1163.35,0.218809
1165.76,0.258797
1168.17,0.288152
1170.58,0.309654
1172.99,0.323835
1175.4,0.33607
1177.81,0.346066
1180.22,0.352559
1182.63,0.359116
1185.04,0.364814
1187.45,0.36591
1189.86,0.358299
1192.27,0.342026
1194.69,0.321419
1197.1,0.30985
1199.51,0.318436
1201.92,0.346638
1204.33,0.390163
1206.74,0.442075
1209.15,0.497834
1211.56,0.553905
1213.97,0.605498
1216.38,0.645944
1218.79,0.672118
1221.2,0.684136
1223.61,0.683232
1226.02,0.67106
1228.43,0.65089
1230.84,0.623634
1233.25,0.590701
1235.67,0.555294
1238.08,0.520204
1240.49,0.489307
1242.9,0.464854
1245.31,0.450845
1247.72,0.449173
1250.13,0.458774
1252.54,0.477122
1254.95,0.500101
1257.36,0.525274
1259.77,0.548156
1262.18,0.564579
1264.59,0.572946
1267,0.573854
1269.41,0.568992
1271.82,0.561138
1274.23,0.553588
1276.64,0.551039
1279.06,0.559165
1281.47,0.58302
1283.88,0.618455
1286.29,0.658109
1288.7,0.69668
1291.11,0.730494
1293.52,0.757473
1295.93,0.779744
1298.34,0.796425
1300.75,0.809298
1303.16,0.819998
1305.57,0.827923
1307.98,0.833628
1310.39,0.840125
1312.8,0.846922
1315.21,0.852998
1317.62,0.857636
1320.04,0.862064
1322.45,0.86534
1324.86,0.868698
1327.27,0.870578
1329.68,0.869783
1332.09,0.868833
1334.5,0.868437
1336.91,0.869113
1339.32,0.870001
1341.73,0.869389
1344.14,0.869428
1346.55,0.868777
1348.96,0.868609
1351.37,0.865545
1353.78,0.863359
1356.19,0.861689
1358.6,0.856384
1361.02,0.851246
1363.43,0.847339
1365.84,0.840208
1368.25,0.832697
1370.66,0.828057
1373.07,0.825082
1375.48,0.823057
1377.89,0.822898
1380.3,0.82129
1382.71,0.81844
1385.12,0.807108
1387.53,0.787505
1389.94,0.767923
1392.35,0.751727
1394.76,0.743855
1397.17,0.750796
1399.58,0.763879
1402,0.783539
1404.41,0.807228
1406.82,0.823979
1409.23,0.839918
1411.64,0.851038
1414.05,0.862705
1416.46,0.86961
1418.87,0.872222
1421.28,0.868081
1423.69,0.855273
1426.1,0.838489
1428.51,0.816538
1430.92,0.777347
1433.33,0.725174
1435.74,0.662115
1438.15,0.601095
1440.56,0.554515
1442.98,0.535367
1445.39,0.552112
1447.8,0.573892
1450.21,0.582697
1452.62,0.581912
1455.03,0.580288
1457.44,0.589216
1459.85,0.601822
1462.26,0.616059
1464.67,0.635837
1467.08,0.665876
1469.49,0.676592
1471.9,0.685357
1474.31,0.7018
1476.72,0.707188
1479.13,0.703404
1481.54,0.708216
1483.96,0.709023
1486.37,0.709341
1488.78,0.707025
1491.19,0.709458
1493.6,0.71488
1496.01,0.731717
1498.42,0.764435
1500.83,0.802428
1503.24,0.828294
1505.65,0.858998
1508.06,0.883515
1510.47,0.894346
1512.88,0.894483
1515.29,0.910002
1517.7,0.924058
1520.11,0.923513
1522.52,0.922574
1524.94,0.921775
1527.35,0.923516
1529.76,0.925381
1532.17,0.931628
1534.58,0.931385
1536.99,0.932654
1539.4,0.928659
1541.81,0.926942
1544.22,0.929723
1546.63,0.920617
1549.04,0.925757
1551.45,0.933344
1553.86,0.931754
1556.27,0.927976
1558.68,0.927358
1561.09,0.92488
1563.5,0.921643
1565.91,0.913718
1568.33,0.928258
1570.74,0.934292
1573.15,0.924882
1575.56,0.921025
1577.97,0.921105
1580.38,0.925451
1582.79,0.918091
1585.2,0.922509
1587.61,0.928577
1590.02,0.926142
1592.43,0.926543
1594.84,0.925807
1597.25,0.926106
1599.66,0.926786
1602.07,0.925682
1604.48,0.92571
1606.89,0.925499
1609.31,0.926049
1611.72,0.924842
1614.13,0.922195
1616.54,0.921861
1618.95,0.920969
1621.36,0.918402
1623.77,0.913123
1626.18,0.918207
1628.59,0.919168
1631,0.91091
1633.41,0.912553
1635.82,0.910384
1638.23,0.908997
1640.64,0.905743
1643.05,0.900057
1645.46,0.906939
1647.87,0.906788
1650.29,0.90221
1652.7,0.895225
1655.11,0.895984
1657.52,0.903618
1659.93,0.889669
1662.34,0.893474
1664.75,0.906704
1667.16,0.897058
1669.57,0.8902
1671.98,0.889553
1674.39,0.888585
1676.8,0.878083
1679.21,0.877106
1681.62,0.872664
1684.03,0.86146
1686.44,0.856706
1688.85,0.841407
1691.27,0.825583
1693.68,0.82086
1696.09,0.813263
1698.5,0.794195
1700.91,0.779489
1703.32,0.759308
1705.73,0.745152
1708.14,0.718322
1710.55,0.689899
1712.96,0.641125
1715.37,0.587621
1717.78,0.516678
1720.19,0.43644
1722.6,0.348732
1725.01,0.258167
1727.42,0.17574
1729.83,0.108139
1732.25,0.0738559
1734.66,0.067173
1737.07,0.0832483
1739.48,0.123433
1741.89,0.168721
1744.3,0.241671
1746.71,0.315978
1749.12,0.382263
1751.53,0.473375
1753.94,0.557606
1756.35,0.640461
1758.76,0.712137
1761.17,0.776888
1763.58,0.826063
1765.99,0.852983
1768.4,0.878148
1770.81,0.887683
1773.23,0.901789
1775.64,0.908491
1778.05,0.912048
1780.46,0.915068
1782.87,0.925598
1785.28,0.930612
1787.69,0.930165
1790.1,0.931677
1792.51,0.93375
1794.92,0.936358
1797.33,0.937725
1799.74,0.934483
1802.15,0.939756
1804.56,0.945513
1806.97,0.943406
1809.38,0.941277
1811.79,0.944062
1814.21,0.946215
1816.62,0.943373
1819.03,0.942324
1821.44,0.944309
1823.85,0.944179
1826.26,0.941942
1828.67,0.942187
1831.08,0.944054
1833.49,0.944468
1835.9,0.945852
1838.31,0.9423
1840.72,0.943033
1843.13,0.943202
1845.54,0.942244
1847.95,0.942931
1850.36,0.943081
1852.77,0.941806
1855.18,0.945043
1857.6,0.946344
1860.01,0.946326
1862.42,0.945679
1864.83,0.944003
1867.24,0.944867
1869.65,0.948917
1872.06,0.950251
1874.47,0.947065
1876.88,0.945933
1879.29,0.944659
1881.7,0.948103
1884.11,0.950949
1886.52,0.948646
1888.93,0.948914
1891.34,0.952995
1893.75,0.950695
1896.16,0.949066
1898.58,0.949934
1900.99,0.949516
1903.4,0.946854
1905.81,0.947788
1908.22,0.950989
1910.63,0.951399
1913.04,0.950179
1915.45,0.951265
1917.86,0.951921
1920.27,0.953805
1922.68,0.956574
1925.09,0.953065
1927.5,0.95007
1929.91,0.951541
1932.32,0.952513
1934.73,0.951128
1937.14,0.950751
1939.56,0.958999
1941.97,0.963746
1944.38,0.959618
1946.79,0.957355
1949.2,0.958614
1951.61,0.958656
1954.02,0.955672
1956.43,0.957295
1958.84,0.958529
1961.25,0.954072
1963.66,0.951471
1966.07,0.949074
1968.48,0.950023
1970.89,0.954346
1973.3,0.956811
1975.71,0.964385
1978.12,0.974347
1980.54,0.967858
1982.95,0.963423
1985.36,0.970022
1987.77,0.97157
1990.18,0.963429
1992.59,0.960073
1995,0.961134
1997.41,0.961498
1999.82,0.96043
2002.23,0.962291
2004.64,0.963666
2007.05,0.95921
2009.46,0.961725
2011.87,0.967492
2014.28,0.960668
2016.69,0.962087
2019.1,0.963996
2021.52,0.967061
2023.93,0.968191
2026.34,0.971949
2028.75,0.976952
2031.16,0.981533
2033.57,0.979669
2035.98,0.964043
2038.39,0.964738
2040.8,0.961839
2043.21,0.963325
2045.62,0.96903
2048.03,0.967611
2050.44,0.960468
2052.85,0.952676
2055.26,0.953354
2057.67,0.957316
2060.08,0.955495
2062.5,0.947969
2064.91,0.949693
2067.32,0.950895
2069.73,0.950106
2072.14,0.949822
2074.55,0.945238
2076.96,0.947073
2079.37,0.952855
2081.78,0.94983
2084.19,0.942986
2086.6,0.944088
2089.01,0.945447
2091.42,0.942128
2093.83,0.941504
2096.24,0.942695
2098.65,0.946435
2101.06,0.946933
2103.48,0.945059
2105.89,0.947737
2108.3,0.951566
2110.71,0.953703
2113.12,0.95275
2115.53,0.955008
2117.94,0.954696
2120.35,0.952973
2122.76,0.953704
2125.17,0.954879
2127.58,0.955604
2129.99,0.955707
2132.4,0.955603
2134.81,0.959116
2137.22,0.963104
2139.63,0.960336
2142.04,0.963879
2144.45,0.963763
2146.87,0.965419
2149.28,0.977519
2151.69,0.979004
2154.1,0.971227
2156.51,0.964933
2158.92,0.966766
2161.33,0.97428
2163.74,0.970119
2166.15,0.963461
2168.56,0.968577
2170.97,0.975929
2173.38,0.962956
2175.79,0.961294
2178.2,0.953811
2180.61,0.9518
2183.02,0.945757
2185.43,0.951206
2187.85,0.960142
2190.26,0.946217
2192.67,0.936602
2195.08,0.93714
2197.49,0.949775
2199.9,0.946372
2202.31,0.936942
2204.72,0.938931
2207.13,0.944148
2209.54,0.952547
2211.95,0.943916
2214.36,0.939343
2216.77,0.942567
2219.18,0.950531
2221.59,0.951171
2224,0.952947
2226.41,0.95656
2228.83,0.959353
2231.24,0.957942
2233.65,0.957653
2236.06,0.960893
2238.47,0.955533
2240.88,0.954761
2243.29,0.955534
2245.7,0.95525
2248.11,0.954949
2250.52,0.955198
2252.93,0.951703
2255.34,0.952975
2257.75,0.956559
2260.16,0.95528
2262.57,0.949404
2264.98,0.947358
2267.39,0.945237
2269.81,0.942899
2272.22,0.945367
2274.63,0.946789
2277.04,0.949789
2279.45,0.951024
2281.86,0.946718
2284.27,0.947395
2286.68,0.950642
2289.09,0.948065
2291.5,0.9441
2293.91,0.941327
2296.32,0.941811
2298.73,0.942904
2301.14,0.94223
2303.55,0.942722
2305.96,0.943452
2308.37,0.945525
2310.79,0.948057
2313.2,0.945068
2315.61,0.94506
2318.02,0.94615
2320.43,0.947307
2322.84,0.946142
2325.25,0.94584
2327.66,0.943211
2330.07,0.940896
2332.48,0.943157
2334.89,0.943413
2337.3,0.942257
2339.71,0.941492
2342.12,0.941316
2344.53,0.941532
2346.94,0.94224
2349.35,0.94042
2351.77,0.941537
2354.18,0.942361
2356.59,0.943707
2359,0.950051
2361.41,0.947229
2363.82,0.935725
2366.23,0.934177
2368.64,0.937899
2371.05,0.93841
2373.46,0.93488
2375.87,0.931733
2378.28,0.934262
2380.69,0.933986
2383.1,0.935211
2385.51,0.937798
2387.92,0.94089
2390.33,0.941922
2392.75,0.941518
2395.16,0.942924
2397.57,0.944166
2399.98,0.944617
2402.39,0.944782
2404.8,0.94503
2407.21,0.946897
2409.62,0.949606
2412.03,0.949798
2414.44,0.947393
2416.85,0.947086
2419.26,0.949186
2421.67,0.948307
2424.08,0.949054
2426.49,0.949824
2428.9,0.950666
2431.31,0.950817
2433.72,0.948472
2436.14,0.94783
2438.55,0.948697
2440.96,0.948614
2443.37,0.949103
2445.78,0.95013
2448.19,0.950847
2450.6,0.951736
2453.01,0.954671
2455.42,0.953728
2457.83,0.950267
2460.24,0.950318
2462.65,0.953266
2465.06,0.952787
2467.47,0.950337
2469.88,0.950591
2472.29,0.949329
2474.7,0.949363
2477.12,0.949417
2479.53,0.949102
2481.94,0.949533
2484.35,0.949331
2486.76,0.947942
2489.17,0.950352
2491.58,0.949387
2493.99,0.949128
2496.4,0.950685
2498.81,0.947969
2501.22,0.945446
2503.63,0.948128
2506.04,0.948484
2508.45,0.947334
2510.86,0.949161
2513.27,0.950138
2515.68,0.950917
2518.1,0.950075
2520.51,0.948434
2522.92,0.950242
2525.33,0.95266
2527.74,0.953712
2530.15,0.951859
2532.56,0.951551
2534.97,0.952308
2537.38,0.948973
2539.79,0.950163
2542.2,0.952545
2544.61,0.95177
2547.02,0.952041
2549.43,0.950635
2551.84,0.950112
2554.25,0.949395
2556.66,0.948692
2559.08,0.950783
2561.49,0.950993
2563.9,0.951425
2566.31,0.949875
2568.72,0.949523
2571.13,0.950413
2573.54,0.951429
2575.95,0.950706
2578.36,0.950373
2580.77,0.950929
2583.18,0.951871
2585.59,0.952128
2588,0.951722
2590.41,0.951573
2592.82,0.949318
2595.23,0.950006
2597.64,0.950462
2600.06,0.951332
2602.47,0.950329
2604.88,0.949719
2607.29,0.947759
2609.7,0.945675
2612.11,0.94947
2614.52,0.951342
2616.93,0.950988
2619.34,0.950061
2621.75,0.949855
2624.16,0.949789
2626.57,0.949293
2628.98,0.950034
2631.39,0.950006
2633.8,0.949975
2636.21,0.950128
2638.62,0.949027
2641.04,0.949229
2643.45,0.948389
2645.86,0.945818
2648.27,0.945281
2650.68,0.946727
2653.09,0.948166
2655.5,0.948757
2657.91,0.948854
2660.32,0.948195
2662.73,0.947946
2665.14,0.947789
2667.55,0.948564
2669.96,0.949286
2672.37,0.949916
2674.78,0.950675
2677.19,0.951186
2679.6,0.951018
2682.02,0.951008
2684.43,0.952475
2686.84,0.953175
2689.25,0.953566
2691.66,0.953599
2694.07,0.954685
2696.48,0.955477
2698.89,0.956559
2701.3,0.955679
2703.71,0.954897
2706.12,0.955769
2708.53,0.955824
2710.94,0.956355
2713.35,0.955854
2715.76,0.955666
2718.17,0.956696
2720.58,0.957321
2722.99,0.957089
2725.41,0.956836
2727.82,0.95699
2730.23,0.956326
2732.64,0.956441
2735.05,0.95607
2737.46,0.956206
2739.87,0.955388
2742.28,0.955188
2744.69,0.954602
2747.1,0.954716
2749.51,0.954846
2751.92,0.954002
2754.33,0.953032
2756.74,0.95283
2759.15,0.953624
2761.56,0.953646
2763.97,0.954501
2766.39,0.953906
2768.8,0.953202
2771.21,0.953862
2773.62,0.954185
2776.03,0.953918
2778.44,0.953682
2780.85,0.953627
2783.26,0.954166
2785.67,0.954547
2788.08,0.954947
2790.49,0.953751
2792.9,0.953471
2795.31,0.953902
2797.72,0.953881
2800.13,0.954242
2802.54,0.954242
2804.95,0.953949
2807.37,0.953972
2809.78,0.95474
2812.19,0.954442
2814.6,0.954657
2817.01,0.954878
2819.42,0.9547
2821.83,0.954443
2824.24,0.953813
2826.65,0.952938
2829.06,0.952888
2831.47,0.95299
2833.88,0.951463
2836.29,0.949394
2838.7,0.948308
2841.11,0.946775
2843.52,0.943878
2845.93,0.941275
2848.35,0.938683
2850.76,0.933111
2853.17,0.928577
2855.58,0.925301
2857.99,0.921155
2860.4,0.918178
2862.81,0.915776
2865.22,0.91341
2867.63,0.91337
2870.04,0.912824
2872.45,0.914518
2874.86,0.916315
2877.27,0.916357
2879.68,0.918302
2882.09,0.922361
2884.5,0.922525
2886.91,0.920563
2889.33,0.919133
2891.74,0.917886
2894.15,0.917465
2896.56,0.915535
2898.97,0.913961
2901.38,0.910967
2903.79,0.908164
2906.2,0.904937
2908.61,0.901101
2911.02,0.897177
2913.43,0.892266
2915.84,0.890332
2918.25,0.887284
2920.66,0.881964
2923.07,0.876261
2925.48,0.871674
2927.89,0.865634
2930.31,0.860172
2932.72,0.852266
2935.13,0.8457
2937.54,0.841088
2939.95,0.836158
2942.36,0.831872
2944.77,0.826188
2947.18,0.821996
2949.59,0.819118
2952,0.818228
2954.41,0.815113
2956.82,0.809191
2959.23,0.801023
2961.64,0.789326
2964.05,0.778618
2966.46,0.772478
2968.87,0.775099
2971.29,0.784056
2973.7,0.796536
2976.11,0.812562
2978.52,0.827068
2980.93,0.839523
2983.34,0.853761
2985.75,0.866227
2988.16,0.873498
2990.57,0.878635
2992.98,0.881469
2995.39,0.881215
2997.8,0.877341
3000.21,0.871253
3002.62,0.866118
3005.03,0.86137
3007.44,0.858273
3009.85,0.855536
3012.27,0.85511
3014.68,0.858222
3017.09,0.861397
3019.5,0.864173
3021.91,0.869383
3024.32,0.874823
3026.73,0.879555
3029.14,0.885727
3031.55,0.892088
3033.96,0.896499
3036.37,0.901546
3038.78,0.906546
3041.19,0.910118
3043.6,0.915012
3046.01,0.921818
3048.42,0.928688
3050.83,0.932925
3053.24,0.934918
3055.66,0.937463
3058.07,0.942093
3060.48,0.944516
3062.89,0.946651
3065.3,0.949776
3067.71,0.952295
3070.12,0.95456
3072.53,0.957735
3074.94,0.959737
3077.35,0.959435
3079.76,0.960517
3082.17,0.961904
3084.58,0.962256
3086.99,0.96347
3089.4,0.96492
3091.81,0.965465
3094.22,0.965072
3096.64,0.966791
3099.05,0.967883
3101.46,0.967406
3103.87,0.968137
3106.28,0.969834
3108.69,0.968266
3111.1,0.967047
3113.51,0.967538
3115.92,0.969084
3118.33,0.967911
3120.74,0.966854
3123.15,0.967737
3125.56,0.967818
3127.97,0.969317
3130.38,0.969716
3132.79,0.971364
3135.2,0.973036
3137.62,0.972219
3140.03,0.970203
3142.44,0.971321
3144.85,0.972381
3147.26,0.97198
3149.67,0.971844
3152.08,0.96996
3154.49,0.969151
3156.9,0.970508
3159.31,0.971349
3161.72,0.970915
3164.13,0.971983
3166.54,0.973543
3168.95,0.973217
3171.36,0.969794
3173.77,0.970333
3176.18,0.971246
3178.6,0.971487
3181.01,0.971933
3183.42,0.97124
3185.83,0.970943
3188.24,0.973223
3190.65,0.972466
3193.06,0.971944
3195.47,0.972305
3197.88,0.971571
3200.29,0.972054
3202.7,0.972555
3205.11,0.973268
3207.52,0.971495
3209.93,0.97294
3212.34,0.974916
3214.75,0.975728
3217.16,0.975308
3219.58,0.975812
3221.99,0.975136
3224.4,0.974028
3226.81,0.977079
3229.22,0.975614
3231.63,0.972734
3234.04,0.974179
3236.45,0.973119
3238.86,0.971551
3241.27,0.974467
3243.68,0.97474
3246.09,0.974707
3248.5,0.978075
3250.91,0.975965
3253.32,0.97437
3255.73,0.976446
3258.14,0.976448
3260.56,0.975551
3262.97,0.9745
3265.38,0.974794
3267.79,0.974254
3270.2,0.973812
3272.61,0.971366
3275.02,0.974278
3277.43,0.975039
3279.84,0.975562
3282.25,0.975563
3284.66,0.975512
3287.07,0.97779
3289.48,0.97692
3291.89,0.975755
3294.3,0.974813
3296.71,0.97457
3299.12,0.975438
3301.54,0.976732
3303.95,0.978407
3306.36,0.980212
3308.77,0.978228
3311.18,0.97603
3313.59,0.978381
3316,0.975001
3318.41,0.975875
3320.82,0.977244
3323.23,0.977355
3325.64,0.977277
3328.05,0.978349
3330.46,0.975209
3332.87,0.974416
3335.28,0.97897
3337.69,0.978158
3340.1,0.977348
3342.51,0.977413
3344.93,0.979226
3347.34,0.979322
3349.75,0.975167
3352.16,0.974278
3354.57,0.975645
3356.98,0.980303
3359.39,0.981006
3361.8,0.979183
3364.21,0.977552
3366.62,0.973617
3369.03,0.974017
3371.44,0.976226
3373.85,0.976404
3376.26,0.976942
3378.67,0.977983
3381.08,0.980046
3383.49,0.979262
3385.91,0.978592
3388.32,0.977774
3390.73,0.97729
3393.14,0.978743
3395.55,0.980265
3397.96,0.98103
3400.37,0.978592
3402.78,0.975214
3405.19,0.97763
3407.6,0.975425
3410.01,0.976373
3412.42,0.978909
3414.83,0.977449
3417.24,0.976668
3419.65,0.97475
3422.06,0.975029
3424.47,0.977471
3426.89,0.979613
3429.3,0.978972
3431.71,0.977427
3434.12,0.977855
3436.53,0.97771
3438.94,0.977936
3441.35,0.976565
3443.76,0.977412
3446.17,0.978148
3448.58,0.975558
3450.99,0.971468
3453.4,0.97366
3455.81,0.975261
3458.22,0.975564
3460.63,0.974512
3463.04,0.973636
3465.45,0.974739
3467.87,0.979332
3470.28,0.978012
3472.69,0.980555
3475.1,0.98027
3477.51,0.977949
3479.92,0.977634
3482.33,0.977369
3484.74,0.976497
3487.15,0.979963
3489.56,0.983485
3491.97,0.979068
3494.38,0.977778
3496.79,0.984298
3499.2,0.982843
3501.61,0.980033
3504.02,0.978456
3506.43,0.976912
3508.85,0.980445
3511.26,0.982198
3513.67,0.981825
3516.08,0.979704
3518.49,0.975419
3520.9,0.975481
3523.31,0.977469
3525.72,0.97736
3528.13,0.977084
3530.54,0.981392
3532.95,0.98038
3535.36,0.976482
3537.77,0.98016
3540.18,0.982047
3542.59,0.979186
3545,0.977503
3547.41,0.983369
3549.83,0.980643
3552.24,0.977798
3554.65,0.97951
3557.06,0.979941
3559.47,0.979034
3561.88,0.974721
3564.29,0.972685
3566.7,0.974241
3569.11,0.976263
3571.52,0.978244
3573.93,0.978671
3576.34,0.974521
3578.75,0.974285
3581.16,0.977075
3583.57,0.973295
3585.98,0.970405
3588.39,0.982178
3590.81,0.982883
3593.22,0.981019
3595.63,0.981014
3598.04,0.978941
3600.45,0.978418
3602.86,0.976399
3605.27,0.974491
3607.68,0.974882
3610.09,0.975274
3612.5,0.969865
3614.91,0.972117
3617.32,0.974258
3619.73,0.970715
3622.14,0.973754
3624.55,0.975136
3626.96,0.970771
3629.37,0.971137
3631.78,0.974061
3634.2,0.976005
3636.61,0.970696
3639.02,0.972262
3641.43,0.980259
3643.84,0.970817
3646.25,0.957779
3648.66,0.961839
3651.07,0.98552
3653.48,0.976571
3655.89,0.972382
3658.3,0.972796
3660.71,0.972408
3663.12,0.969666
3665.53,0.963392
3667.94,0.958921
3670.35,0.975474
3672.76,0.982152
3675.18,0.969092
3677.59,0.970662
3680,0.972586
3682.41,0.973443
3684.82,0.97149
3687.23,0.96621
3689.64,0.967
3692.05,0.980127
3694.46,0.96999
3696.87,0.982752
3699.28,0.985055
3701.69,0.975363
3704.1,0.970711
3706.51,0.967657
3708.92,0.971278
3711.33,0.982729
3713.74,0.980968
3716.16,0.976465
3718.57,0.976902
3720.98,0.977507
3723.39,0.978309
3725.8,0.974513
3728.21,0.971488
3730.62,0.974046
3733.03,0.987061
3735.44,0.988221
3737.85,0.978593
3740.26,0.978927
3742.67,0.977089
3745.08,0.977084
3747.49,0.977206
3749.9,0.976175
3752.31,0.976268
3754.72,0.981904
3757.14,0.985587
3759.55,0.985406
3761.96,0.974311
3764.37,0.965004
3766.78,0.984272
3769.19,0.969126
3771.6,0.972883
3774.01,0.991524
3776.42,0.985998
3778.83,0.976324
3781.24,0.975113
3783.65,0.97398
3786.06,0.972473
3788.47,0.97384
3790.88,0.976892
3793.29,0.981031
3795.7,0.976248
3798.12,0.971197
3800.53,0.974138
3802.94,0.981671
3805.35,0.978983
3807.76,0.978312
3810.17,0.982559
3812.58,0.980417
3814.99,0.977981
3817.4,0.974887
3819.81,0.971376
3822.22,0.974151
3824.63,0.991224
3827.04,0.984184
3829.45,0.993505
3831.86,0.9885
3834.27,0.977541
3836.68,0.974018
3839.1,0.984589
3841.51,0.979626
3843.92,0.990125
3846.33,0.982953
3848.74,0.98448
3851.15,0.980562
3853.56,0.979728
3855.97,0.97616
3858.38,0.980542
3860.79,0.989114
3863.2,0.984795
3865.61,0.982538
3868.02,0.981513
3870.43,0.972392
3872.84,0.96082
3875.25,0.977144
3877.66,0.995656
3880.08,0.986052
3882.49,0.977132
3884.9,0.975714
3887.31,0.979694
3889.72,0.971189
3892.13,0.975403
3894.54,0.980294
3896.95,0.984363
3899.36,0.980938
3901.77,0.978622
3904.18,0.978684
3906.59,0.977321
3909,0.987016
3911.41,0.978863
3913.82,0.98242
3916.23,0.985004
3918.64,0.978086
3921.05,0.974068
3923.47,0.978151
3925.88,0.983875
3928.29,0.988827
3930.7,0.984373
3933.11,0.981298
3935.52,0.978708
3937.93,0.979807
3940.34,0.984537
3942.75,0.987567
3945.16,0.985518
3947.57,0.982251
3949.98,0.983576
3952.39,0.984103
3954.8,0.986619
3957.21,0.98903
3959.62,0.984797
3962.03,0.982495
3964.45,0.981475
3966.86,0.983455
3969.27,0.98081
3971.68,0.983344
3974.09,0.986038
3976.5,0.988001
3978.91,0.989091
3981.32,0.985492
3983.73,0.985248
3986.14,0.986593
3988.55,0.986745
3990.96,0.987059
3993.37,0.987256
3995.78,0.986154
3998.19,0.987226
4000.12,0.988137