File: FTIR_data/PVA.csv
449.815,0.256456
452.225,0.249381
454.636,0.263131
457.047,0.251847
459.457,0.248292
461.868,0.240403
464.278,0.261399
466.689,0.259893
469.1,0.234075
471.51,0.230099
473.921,0.224286
476.331,0.230414
478.742,0.230383
481.152,0.228931
483.563,0.23779
485.974,0.234057
488.384,0.243694
490.795,0.259208
493.205,0.251379
495.616,0.250031
498.027,0.253141
500.437,0.255222
502.848,0.258733
505.258,0.254885
507.669,0.25419
510.079,0.259592
512.49,0.253919
514.901,0.251203
517.311,0.254396
519.722,0.251147
522.132,0.254559
524.543,0.258338
526.954,0.261693
529.364,0.266912
531.775,0.262366
534.185,0.266022
536.596,0.265863
539.006,0.264522
541.417,0.264061
543.828,0.267409
546.238,0.274448
548.649,0.270321
551.059,0.271063
553.47,0.280846
555.881,0.282231
558.291,0.27477
560.702,0.275065
563.112,0.28391
565.523,0.286362
567.933,0.290791
570.344,0.292059
572.755,0.289858
575.165,0.287848
577.576,0.281731
579.986,0.281834
582.397,0.283826
584.808,0.282663
587.218,0.280425
589.629,0.280762
592.039,0.278074
594.45,0.274513
596.86,0.265878
599.271,0.254067
601.682,0.238921
604.092,0.223279
606.503,0.213604
608.913,0.21822
611.324,0.235193
613.735,0.261404
616.145,0.285816
618.556,0.307739
620.966,0.324773
623.377,0.336419
625.787,0.345867
628.198,0.34652
630.609,0.347517
633.019,0.349725
635.43,0.356735
637.84,0.366473
640.251,0.376166
642.662,0.384648
645.072,0.390866
647.483,0.396631
649.893,0.399559
652.304,0.40353
654.714,0.405952
657.125,0.403758
659.536,0.391926
661.946,0.37998
664.357,0.38127
666.767,0.400377
669.178,0.420341
671.589,0.432328
673.999,0.441126
676.41,0.446631
678.82,0.448976
681.231,0.452851
683.641,0.46111
686.052,0.470168
688.463,0.478229
690.873,0.483338
693.284,0.483485
695.694,0.474879
698.105,0.460182
700.516,0.452432
702.926,0.456467
705.337,0.467602
707.747,0.48547
710.158,0.503332
712.568,0.519192
714.979,0.533499
717.39,0.544689
719.8,0.55056
722.211,0.552743
724.621,0.555061
727.032,0.558868
729.443,0.56285
731.853,0.566591
734.264,0.57108
736.674,0.57667
739.085,0.579692
741.495,0.581988
743.906,0.584909
746.317,0.586045
748.727,0.58597
751.138,0.588218
753.548,0.593615
755.959,0.595598
758.37,0.596827
760.78,0.598987
763.191,0.602514
765.601,0.607446
768.012,0.61329
770.422,0.61954
772.833,0.62379
775.244,0.627142
777.654,0.631603
780.065,0.636069
782.475,0.636866
784.886,0.636457
787.297,0.636473
789.707,0.632441
792.118,0.625612
794.528,0.615548
796.939,0.604171
799.349,0.598168
801.76,0.596369
804.171,0.594102
806.581,0.592239
808.992,0.587655
811.402,0.584135
813.813,0.576657
816.224,0.565946
818.634,0.555377
821.045,0.545387
823.455,0.534546
825.866,0.520493
828.276,0.509402
830.687,0.502305
833.098,0.494771
835.508,0.490211
837.919,0.489938
840.329,0.490668
842.74,0.493309
845.151,0.497493
847.561,0.500281
849.972,0.5021
852.382,0.506375
854.793,0.512642
857.203,0.521103
859.614,0.530222
862.025,0.541106
864.435,0.558948
866.846,0.589131
869.256,0.629053
871.667,0.670277
874.078,0.702958
876.488,0.725107
878.899,0.736395
881.309,0.738021
883.72,0.733712
886.13,0.72424
888.541,0.714262
890.952,0.703348
893.362,0.69238
895.773,0.682496
898.183,0.676299
900.594,0.670843
903.005,0.664133
905.415,0.657705
907.826,0.653299
910.236,0.647028
912.647,0.640922
915.057,0.63478
917.468,0.628626
919.879,0.620704
922.289,0.614519
924.7,0.608367
927.11,0.601208
929.521,0.593177
931.932,0.58489
934.342,0.575208
936.753,0.562023
939.163,0.54792
941.574,0.533338
943.984,0.517675
946.395,0.502838
948.806,0.492124
951.216,0.488846
953.627,0.494744
956.037,0.510849
958.448,0.534755
960.859,0.558386
963.269,0.575842
965.68,0.583969
968.09,0.58596
970.501,0.589165
972.911,0.596898
975.322,0.603273
977.733,0.60723
980.143,0.605963
982.554,0.599141
984.964,0.59007
987.375,0.580082
989.786,0.567873
992.196,0.555429
994.607,0.541814
997.017,0.527705
999.428,0.51078
1001.84,0.490201
1004.25,0.467896
1006.66,0.44084
1009.07,0.409837
1011.48,0.373306
1013.89,0.331091
1016.3,0.281747
1018.71,0.227934
1021.12,0.174042
1023.53,0.126605
1025.94,0.101081
1028.35,0.106615
1030.77,0.13295
1033.18,0.164069
1035.59,0.193749
1038,0.219744
1040.41,0.239325
1042.82,0.250439
1045.23,0.254496
1047.64,0.253565
1050.05,0.252325
1052.46,0.254901
1054.87,0.261431
1057.28,0.268846
1059.69,0.275696
1062.1,0.280488
1064.51,0.282756
1066.92,0.281463
1069.33,0.275547
1071.75,0.266516
1074.16,0.259314
1076.57,0.251553
1078.98,0.241382
1081.39,0.231159
1083.8,0.218802
1086.21,0.205738
1088.62,0.190655
1091.03,0.175962
1093.44,0.165956
1095.85,0.164695
1098.26,0.175026
1100.67,0.194807
1103.08,0.22164
1105.49,0.252347
1107.9,0.283569
1110.31,0.313298
1112.73,0.339996
1115.14,0.362485
1117.55,0.38081
1119.96,0.395521
1122.37,0.406559
1124.78,0.415754
1127.19,0.424193
1129.6,0.431335
1132.01,0.43841
1134.42,0.445847
1136.83,0.455474
1139.24,0.466495
1141.65,0.476859
1144.06,0.485538
1146.47,0.495427
1148.88,0.514638
1151.29,0.553122
1153.71,0.611862
1156.12,0.678655
1158.53,0.734152
1160.94,0.769805
1163.35,0.786285
1165.76,0.787446
1168.17,0.780714
1170.58,0.769792
1172.99,0.757378
1175.4,0.746317
1177.81,0.73934
1180.22,0.733993
1182.63,0.72713
1185.04,0.718264
1187.45,0.707578
1189.86,0.696534
1192.27,0.685459
1194.69,0.67353
1197.1,0.661131
1199.51,0.647782
1201.92,0.632126
1204.33,0.613997
1206.74,0.593323
1209.15,0.568517
1211.56,0.541628
1213.97,0.509951
1216.38,0.471555
1218.79,0.428593
1221.2,0.38079
1223.61,0.329578
1226.02,0.27529
1228.43,0.219523
1230.84,0.164648
1233.25,0.113522
1235.67,0.0706518
1238.08,0.0377499
1240.49,0.0152867
1242.9,0.00352643
1245.31,0
1247.72,0.00391042
1250.13,0.0146348
1252.54,0.0297824
1254.95,0.0491483
1257.36,0.0703276
1259.77,0.0936125
1262.18,0.118118
1264.59,0.141799
1267,0.166101
1269.41,0.192248
1271.82,0.220676
1274.23,0.252167
1276.64,0.287062
1279.06,0.326052
1281.47,0.368912
1283.88,0.413567
1286.29,0.460123
1288.7,0.50554
1291.11,0.548153
1293.52,0.585835
1295.93,0.61676
1298.34,0.6414
1300.75,0.659629
1303.16,0.672169
1305.57,0.680674
1307.98,0.686048
1310.39,0.687337
1312.8,0.685617
1315.21,0.680118
1317.62,0.671752
1320.04,0.662695
1322.45,0.654747
1324.86,0.650361
1327.27,0.649665
1329.68,0.652143
1332.09,0.654998
1334.5,0.658481
1336.91,0.662902
1339.32,0.665417
1341.73,0.666287
1344.14,0.667218
1346.55,0.665849
1348.96,0.661511
1351.37,0.655446
1353.78,0.644994
1356.19,0.629382
1358.6,0.607882
1361.02,0.581011
1363.43,0.549262
1365.84,0.516085
1368.25,0.48681
1370.66,0.4588
1373.07,0.433678
1375.48,0.409565
1377.89,0.388576
1380.3,0.383876
1382.71,0.402962
1385.12,0.440755
1387.53,0.491156
1389.94,0.550145
1392.35,0.604706
1394.76,0.64495
1397.17,0.670999
1399.58,0.686689
1402,0.693398
1404.41,0.689789
1406.82,0.681944
1409.23,0.67149
1411.64,0.661032
1414.05,0.649164
1416.46,0.640049
1418.87,0.631814
1421.28,0.62496
1423.69,0.6198
1426.1,0.6139
1428.51,0.605148
1430.92,0.599954
1433.33,0.591547
1435.74,0.58599
1438.15,0.584948
1440.56,0.586764
1442.98,0.593339
1445.39,0.602517
1447.8,0.61565
1450.21,0.629685
1452.62,0.644078
1455.03,0.659743
1457.44,0.676686
1459.85,0.692332
1462.26,0.708893
1464.67,0.729889
1467.08,0.754089
1469.49,0.772139
1471.9,0.787058
1474.31,0.799132
1476.72,0.810434
1479.13,0.821349
1481.54,0.833812
1483.96,0.844434
1486.37,0.854261
1488.78,0.862326
1491.19,0.870848
1493.6,0.879407
1496.01,0.886237
1498.42,0.887584
1500.83,0.886719
1503.24,0.891372
1505.65,0.904652
1508.06,0.91588
1510.47,0.921969
1512.88,0.924855
1515.29,0.9241
1517.7,0.922207
1520.11,0.921911
1522.52,0.922016
1524.94,0.922094
1527.35,0.923209
1529.76,0.925241
1532.17,0.928263
1534.58,0.930506
1536.99,0.930456
1539.4,0.930531
1541.81,0.930533
1544.22,0.930645
1546.63,0.930153
1549.04,0.928345
1551.45,0.929218
1553.86,0.929071
1556.27,0.928417
1558.68,0.928144
1561.09,0.927118
1563.5,0.925863
1565.91,0.92388
1568.33,0.923498
1570.74,0.923226
1573.15,0.923357
1575.56,0.923213
1577.97,0.92275
1580.38,0.921963
1582.79,0.920426
1585.2,0.919839
1587.61,0.919421
1590.02,0.918785
1592.43,0.918493
1594.84,0.918236
1597.25,0.917551
1599.66,0.916816
1602.07,0.915526
1604.48,0.913033
1606.89,0.91001
1609.31,0.906269
1611.72,0.900619
1614.13,0.895323
1616.54,0.893399
1618.95,0.890374
1621.36,0.889215
1623.77,0.890336
1626.18,0.894157
1628.59,0.896932
1631,0.893822
1633.41,0.889652
1635.82,0.88553
1638.23,0.87903
1640.64,0.87296
1643.05,0.870007
1645.46,0.864138
1647.87,0.857808
1650.29,0.853651
1652.7,0.849008
1655.11,0.846198
1657.52,0.84113
1659.93,0.838142
1662.34,0.836924
1664.75,0.831844
1667.16,0.829798
1669.57,0.82886
1671.98,0.828251
1674.39,0.827073
1676.8,0.825249
1679.21,0.82189
1681.62,0.820985
1684.03,0.818035
1686.44,0.811335
1688.85,0.803573
1691.27,0.794317
1693.68,0.78025
1696.09,0.75395
1698.5,0.731574
1700.91,0.701882
1703.32,0.668794
1705.73,0.621872
1708.14,0.578556
1710.55,0.517949
1712.96,0.46716
1715.37,0.426521
1717.78,0.390744
1720.19,0.371331
1722.6,0.359633
1725.01,0.354103
1727.42,0.348697
1729.83,0.343499
1732.25,0.338638
1734.66,0.324727
1737.07,0.308569
1739.48,0.297551
1741.89,0.297254
1744.3,0.312617
1746.71,0.348312
1749.12,0.399387
1751.53,0.466909
1753.94,0.540834
1756.35,0.621782
1758.76,0.703434
1761.17,0.780697
1763.58,0.843747
1765.99,0.886995
1768.4,0.916357
1770.81,0.931796
1773.23,0.943392
1775.64,0.949965
1778.05,0.95188
1780.46,0.955217
1782.87,0.959013
1785.28,0.960415
1787.69,0.962378
1790.1,0.964122
1792.51,0.965869
1794.92,0.966597
1797.33,0.967185
1799.74,0.967066
1802.15,0.967554
1804.56,0.96889
1806.97,0.969316
1809.38,0.9705
1811.79,0.970008
1814.21,0.969362
1816.62,0.968453
1819.03,0.969947
1821.44,0.971774
1823.85,0.970931
1826.26,0.970641
1828.67,0.971008
1831.08,0.971279
1833.49,0.971337
1835.9,0.970549
1838.31,0.9709
1840.72,0.972856
1843.13,0.97239
1845.54,0.971788
1847.95,0.970951
1850.36,0.972609
1852.77,0.973235
1855.18,0.971042
1857.6,0.971162
1860.01,0.971382
1862.42,0.972591
1864.83,0.971499
1867.24,0.970936
1869.65,0.971627
1872.06,0.970487
1874.47,0.97112
1876.88,0.970159
1879.29,0.969292
1881.7,0.968469
1884.11,0.969934
1886.52,0.970249
1888.93,0.967003
1891.34,0.968176
1893.75,0.969843
1896.16,0.970099
1898.58,0.968535
1900.99,0.967439
1903.4,0.970048
1905.81,0.970323
1908.22,0.969233
1910.63,0.969559
1913.04,0.969752
1915.45,0.973647
1917.86,0.975664
1920.27,0.973043
1922.68,0.96831
1925.09,0.970857
1927.5,0.971856
1929.91,0.971283
1932.32,0.973577
1934.73,0.974285
1937.14,0.971712
1939.56,0.973734
1941.97,0.971359
1944.38,0.970134
1946.79,0.97022
1949.2,0.971258
1951.61,0.974577
1954.02,0.973632
1956.43,0.97546
1958.84,0.978211
1961.25,0.973769
1963.66,0.974699
1966.07,0.979143
1968.48,0.978808
1970.89,0.977712
1973.3,0.979742
1975.71,0.982107
1978.12,0.986475
1980.54,0.994714
1982.95,0.985813
1985.36,0.988373
1987.77,0.99903
1990.18,0.984528
1992.59,0.979161
1995,0.980826
1997.41,0.983552
1999.82,0.979579
2002.23,0.984588
2004.64,0.990304
2007.05,0.992589
2009.46,0.991661
2011.87,0.994225
2014.28,0.995085
2016.69,0.988354
2019.1,0.984663
2021.52,0.984835
2023.93,0.981355
2026.34,0.986593
2028.75,0.985945
2031.16,0.987036
2033.57,0.991048
2035.98,0.98689
2038.39,0.985438
2040.8,0.983539
2043.21,0.981659
2045.62,0.988575
2048.03,0.985778
2050.44,0.976933
2052.85,0.983747
2055.26,0.982965
2057.67,0.981046
2060.08,0.983226
2062.5,0.978977
2064.91,0.973275
2067.32,0.973327
2069.73,0.973793
2072.14,0.973297
2074.55,0.974448
2076.96,0.973418
2079.37,0.969526
2081.78,0.968187
2084.19,0.971133
2086.6,0.970755
2089.01,0.971907
2091.42,0.972677
2093.83,0.97136
2096.24,0.971303
2098.65,0.971777
2101.06,0.974803
2103.48,0.975822
2105.89,0.97362
2108.3,0.9755
2110.71,0.978803
2113.12,0.98191
2115.53,0.979438
2117.94,0.977002
2120.35,0.977745
2122.76,0.977665
2125.17,0.978327
2127.58,0.98079
2129.99,0.977375
2132.4,0.975671
2134.81,0.978323
2137.22,0.983128
2139.63,0.984256
2142.04,0.979823
2144.45,0.982273
2146.87,0.984701
2149.28,0.985775
2151.69,0.99122
2154.1,0.991577
2156.51,0.989189
2158.92,0.98781
2161.33,0.984401
2163.74,0.989488
2166.15,0.992809
2168.56,0.987815
2170.97,0.989873
2173.38,0.989489
2175.79,0.982374
2178.2,0.98478
2180.61,0.983102
2183.02,0.972602
2185.43,0.97799
2187.85,0.984327
2190.26,0.980799
2192.67,0.980716
2195.08,0.972535
2197.49,0.973107
2199.9,0.971703
2202.31,0.972628
2204.72,0.978442
2207.13,0.974384
2209.54,0.96927
2211.95,0.972459
2214.36,0.972214
2216.77,0.972511
2219.18,0.973351
2221.59,0.972358
2224,0.973515
2226.41,0.973536
2228.83,0.973784
2231.24,0.977185
2233.65,0.977956
2236.06,0.973407
2238.47,0.97287
2240.88,0.976555
2243.29,0.975724
2245.7,0.97251
2248.11,0.976168
2250.52,0.977845
2252.93,0.973978
2255.34,0.968874
2257.75,0.968932
2260.16,0.973769
2262.57,0.972321
2264.98,0.973344
2267.39,0.970794
2269.81,0.969406
2272.22,0.969885
2274.63,0.970169
2277.04,0.971466
2279.45,0.969812
2281.86,0.971777
2284.27,0.971688
2286.68,0.973057
2289.09,0.97445
2291.5,0.971074
2293.91,0.968929
2296.32,0.970501
2298.73,0.971125
2301.14,0.9691
2303.55,0.967176
2305.96,0.967195
2308.37,0.968819
2310.79,0.972021
2313.2,0.97252
2315.61,0.97243
2318.02,0.970755
2320.43,0.970391
2322.84,0.970155
2325.25,0.969729
2327.66,0.96939
2330.07,0.968526
2332.48,0.96958
2334.89,0.970355
2337.3,0.968452
2339.71,0.968614
2342.12,0.965819
2344.53,0.963489
2346.94,0.965227
2349.35,0.965379
2351.77,0.96384
2354.18,0.963403
2356.59,0.964388
2359,0.964885
2361.41,0.963855
2363.82,0.96156
2366.23,0.95976
2368.64,0.959031
2371.05,0.95565
2373.46,0.953757
2375.87,0.95362
2378.28,0.957607
2380.69,0.957357
2383.1,0.958598
2385.51,0.95821
2387.92,0.957452
2390.33,0.960077
2392.75,0.963051
2395.16,0.964251
2397.57,0.96568
2399.98,0.964828
2402.39,0.963823
2404.8,0.964936
2407.21,0.964528
2409.62,0.963321
2412.03,0.962015
2414.44,0.962955
2416.85,0.963514
2419.26,0.963244
2421.67,0.962814
2424.08,0.963155
2426.49,0.964707
2428.9,0.964213
2431.31,0.964446
2433.72,0.964485
2436.14,0.966103
2438.55,0.965593
2440.96,0.963904
2443.37,0.964255
2445.78,0.964925
2448.19,0.964733
2450.6,0.96591
2453.01,0.964932
2455.42,0.964454
2457.83,0.965202
2460.24,0.965727
2462.65,0.965236
2465.06,0.965246
2467.47,0.965511
2469.88,0.963015
2472.29,0.962207
2474.7,0.963275
2477.12,0.963274
2479.53,0.962307
2481.94,0.962781
2484.35,0.962196
2486.76,0.962262
2489.17,0.961751
2491.58,0.960926
2493.99,0.96168
2496.4,0.960596
2498.81,0.959017
2501.22,0.959999
2503.63,0.960442
2506.04,0.960867
2508.45,0.959599
2510.86,0.960773
2513.27,0.961689
2515.68,0.961667
2518.1,0.96168
2520.51,0.961283
2522.92,0.961353
2525.33,0.961537
2527.74,0.960651
2530.15,0.959961
2532.56,0.960567
2534.97,0.959284
2537.38,0.960862
2539.79,0.961076
2542.2,0.959837
2544.61,0.959498
2547.02,0.960098
2549.43,0.961462
2551.84,0.961207
2554.25,0.961419
2556.66,0.960509
2559.08,0.959738
2561.49,0.959457
2563.9,0.959907
2566.31,0.959366
2568.72,0.958507
2571.13,0.959016
2573.54,0.959833
2575.95,0.961724
2578.36,0.96115
2580.77,0.960167
2583.18,0.95968
2585.59,0.958051
2588,0.956808
2590.41,0.956446
2592.82,0.957297
2595.23,0.956486
2597.64,0.955311
2600.06,0.955287
2602.47,0.955492
2604.88,0.954675
2607.29,0.954117
2609.7,0.95389
2612.11,0.953539
2614.52,0.952739
2616.93,0.951305
2619.34,0.950491
2621.75,0.949817
2624.16,0.950576
2626.57,0.949071
2628.98,0.9473
2631.39,0.947546
2633.8,0.947985
2636.21,0.94502
2638.62,0.943032
2641.04,0.943219
2643.45,0.942292
2645.86,0.941921
2648.27,0.941702
2650.68,0.94117
2653.09,0.9414
2655.5,0.941679
2657.91,0.941478
2660.32,0.9415
2662.73,0.940876
2665.14,0.940456
2667.55,0.939847
2669.96,0.938858
2672.37,0.938755
2674.78,0.937622
2677.19,0.937195
2679.6,0.937603
2682.02,0.936946
2684.43,0.935671
2686.84,0.93553
2689.25,0.936127
2691.66,0.936649
2694.07,0.935587
2696.48,0.935574
2698.89,0.936074
2701.3,0.935778
2703.71,0.935609
2706.12,0.935475
2708.53,0.93513
2710.94,0.936132
2713.35,0.936124
2715.76,0.935327
2718.17,0.934409
2720.58,0.933852
2722.99,0.933684
2725.41,0.933379
2727.82,0.933749
2730.23,0.933035
2732.64,0.932454
2735.05,0.932925
2737.46,0.931532
2739.87,0.929805
2742.28,0.930147
2744.69,0.929293
2747.1,0.928487
2749.51,0.928443
2751.92,0.928301
2754.33,0.927606
2756.74,0.927367
2759.15,0.927088
2761.56,0.926042
2763.97,0.925226
2766.39,0.924797
2768.8,0.92436
2771.21,0.92474
2773.62,0.92391
2776.03,0.923221
2778.44,0.922961
2780.85,0.922271
2783.26,0.922035
2785.67,0.921654
2788.08,0.920817
2790.49,0.920267
2792.9,0.920511
2795.31,0.919653
2797.72,0.91833
2800.13,0.917289
2802.54,0.916954
2804.95,0.916213
2807.37,0.914639
2809.78,0.913752
2812.19,0.912173
2814.6,0.910626
2817.01,0.909746
2819.42,0.907703
2821.83,0.904569
2824.24,0.90261
2826.65,0.899634
2829.06,0.897003
2831.47,0.894189
2833.88,0.891009
2836.29,0.88901
2838.7,0.887693
2841.11,0.88461
2843.52,0.882403
2845.93,0.879115
2848.35,0.875867
2850.76,0.87278
2853.17,0.869564
2855.58,0.866815
2857.99,0.863359
2860.4,0.85978
2862.81,0.85743
2865.22,0.854698
2867.63,0.852374
2870.04,0.849849
2872.45,0.848231
2874.86,0.848238
2877.27,0.847486
2879.68,0.845339
2882.09,0.843629
2884.5,0.842078
2886.91,0.838883
2889.33,0.836964
2891.74,0.835626
2894.15,0.833227
2896.56,0.828759
2898.97,0.824306
2901.38,0.820407
2903.79,0.814305
2906.2,0.80541
2908.61,0.795189
2911.02,0.783006
2913.43,0.770273
2915.84,0.756465
2918.25,0.743536
2920.66,0.729977
2923.07,0.719553
2925.48,0.71262
2927.89,0.706652
2930.31,0.702121
2932.72,0.701378
2935.13,0.70275
2937.54,0.704573
2939.95,0.70638
2942.36,0.709598
2944.77,0.71033
2947.18,0.709667
2949.59,0.708403
2952,0.706338
2954.41,0.707513
2956.82,0.710408
2959.23,0.713133
2961.64,0.719885
2964.05,0.731309
2966.46,0.742933
2968.87,0.758765
2971.29,0.775495
2973.7,0.791612
2976.11,0.806948
2978.52,0.820737
2980.93,0.832141
2983.34,0.841315
2985.75,0.850073
2988.16,0.856925
2990.57,0.86263
2992.98,0.867332
2995.39,0.871147
2997.8,0.875982
3000.21,0.881028
3002.62,0.884414
3005.03,0.887029
3007.44,0.890493
3009.85,0.894635
3012.27,0.897841
3014.68,0.900238
3017.09,0.901715
3019.5,0.902833
3021.91,0.904505
3024.32,0.905674
3026.73,0.906608
3029.14,0.906483
3031.55,0.906143
3033.96,0.904204
3036.37,0.902525
3038.78,0.901195
3041.19,0.898161
3043.6,0.89537
3046.01,0.8941
3048.42,0.894931
3050.83,0.896018
3053.24,0.895942
3055.66,0.89622
3058.07,0.895039
3060.48,0.893934
3062.89,0.891822
3065.3,0.890551
3067.71,0.887886
3070.12,0.885979
3072.53,0.883259
3074.94,0.879558
3077.35,0.87832
3079.76,0.876976
3082.17,0.874501
3084.58,0.87263
3086.99,0.8724
3089.4,0.869861
3091.81,0.867568
3094.22,0.865579
3096.64,0.864625
3099.05,0.861516
3101.46,0.85756
3103.87,0.85447
3106.28,0.852843
3108.69,0.852191
3111.1,0.850457
3113.51,0.846242
3115.92,0.843902
3118.33,0.842491
3120.74,0.838295
3123.15,0.834576
3125.56,0.831827
3127.97,0.828115
3130.38,0.82609
3132.79,0.82486
3135.2,0.821403
3137.62,0.817411
3140.03,0.813776
3142.44,0.810385
3144.85,0.807497
3147.26,0.802744
3149.67,0.799049
3152.08,0.79602
3154.49,0.79216
3156.9,0.787393
3159.31,0.785391
3161.72,0.782088
3164.13,0.777329
3166.54,0.773074
3168.95,0.771444
3171.36,0.767235
3173.77,0.76223
3176.18,0.760804
3178.6,0.757475
3181.01,0.753493
3183.42,0.751333
3185.83,0.744947
3188.24,0.738628
3190.65,0.733332
3193.06,0.730236
3195.47,0.726977
3197.88,0.723805
3200.29,0.720324
3202.7,0.715935
3205.11,0.713143
3207.52,0.707323
3209.93,0.704123
3212.34,0.70054
3214.75,0.696677
3217.16,0.691536
3219.58,0.687375
3221.99,0.684056
3224.4,0.682414
3226.81,0.678303
3229.22,0.672729
3231.63,0.669981
3234.04,0.665429
3236.45,0.663025
3238.86,0.6593
3241.27,0.65724
3243.68,0.654544
3246.09,0.651484
3248.5,0.647941
3250.91,0.643592
3253.32,0.641981
3255.73,0.637275
3258.14,0.636173
3260.56,0.635059
3262.97,0.632649
3265.38,0.628353
3267.79,0.626601
3270.2,0.62567
3272.61,0.623657
3275.02,0.621395
3277.43,0.619454
3279.84,0.616579
3282.25,0.614686
3284.66,0.614455
3287.07,0.612703
3289.48,0.608222
3291.89,0.60907
3294.3,0.608451
3296.71,0.6074
3299.12,0.605132
3301.54,0.604258
3303.95,0.602987
3306.36,0.602911
3308.77,0.60081
3311.18,0.600342
3313.59,0.601607
3316,0.601347
3318.41,0.600655
3320.82,0.599126
3323.23,0.596788
3325.64,0.597858
3328.05,0.597716
3330.46,0.595475
3332.87,0.595016
3335.28,0.596805
3337.69,0.597879
3340.1,0.597228
3342.51,0.596481
3344.93,0.596171
3347.34,0.597436
3349.75,0.598206
3352.16,0.598954
3354.57,0.600074
3356.98,0.600459
3359.39,0.601369
3361.8,0.600882
3364.21,0.599171
3366.62,0.599872
3369.03,0.602481
3371.44,0.603992
3373.85,0.602621
3376.26,0.602609
3378.67,0.606476
3381.08,0.610943
3383.49,0.609877
3385.91,0.609778
3388.32,0.612752
3390.73,0.615033
3393.14,0.616455
3395.55,0.618213
3397.96,0.620499
3400.37,0.622331
3402.78,0.624447
3405.19,0.629352
3407.6,0.632323
3410.01,0.634447
3412.42,0.634135
3414.83,0.635889
3417.24,0.638142
3419.65,0.639238
3422.06,0.643186
3424.47,0.649645
3426.89,0.65274
3429.3,0.655543
3431.71,0.657351
3434.12,0.657626
3436.53,0.661727
3438.94,0.666158
3441.35,0.670897
3443.76,0.676293
3446.17,0.678443
3448.58,0.683697
3450.99,0.685962
3453.4,0.687028
3455.81,0.690823
3458.22,0.695383
3460.63,0.70301
3463.04,0.705603
3465.45,0.707655
3467.87,0.711645
3470.28,0.714907
3472.69,0.720655
3475.1,0.720732
3477.51,0.72271
3479.92,0.728491
3482.33,0.732681
3484.74,0.738428
3487.15,0.743308
3489.56,0.748057
3491.97,0.751268
3494.38,0.754121
3496.79,0.756143
3499.2,0.761598
3501.61,0.767036
3504.02,0.772572
3506.43,0.773703
3508.85,0.77715
3511.26,0.784231
3513.67,0.788189
3516.08,0.791743
3518.49,0.795052
3520.9,0.798791
3523.31,0.802369
3525.72,0.805641
3528.13,0.808985
3530.54,0.812907
3532.95,0.819097
3535.36,0.825096
3537.77,0.828099
3540.18,0.830358
3542.59,0.83461
3545,0.838586
3547.41,0.840052
3549.83,0.843817
3552.24,0.850635
3554.65,0.857313
3557.06,0.861299
3559.47,0.861305
3561.88,0.862694
3564.29,0.868047
3566.7,0.870859
3569.11,0.875908
3571.52,0.881058
3573.93,0.887092
3576.34,0.893699
3578.75,0.897286
3581.16,0.901279
3583.57,0.901762
3585.98,0.906108
3588.39,0.909429
3590.81,0.909263
3593.22,0.912905
3595.63,0.91542
3598.04,0.9199
3600.45,0.923826
3602.86,0.925337
3605.27,0.927515
3607.68,0.928092
3610.09,0.928427
3612.5,0.932719
3614.91,0.938172
3617.32,0.939139
3619.73,0.943446
3622.14,0.94463
3624.55,0.945175
3626.96,0.947709
3629.37,0.951073
3631.78,0.95094
3634.2,0.953487
3636.61,0.960704
3639.02,0.962611
3641.43,0.960961
3643.84,0.961103
3646.25,0.962011
3648.66,0.961444
3651.07,0.963569
3653.48,0.970056
3655.89,0.973054
3658.3,0.969773
3660.71,0.971901
3663.12,0.977306
3665.53,0.97752
3667.94,0.975616
3670.35,0.977543
3672.76,0.979815
3675.18,0.983501
3677.59,0.984663
3680,0.982655
3682.41,0.981335
3684.82,0.983108
3687.23,0.985629
3689.64,0.990643
3692.05,0.989871
3694.46,0.988543
3696.87,0.991844
3699.28,0.993845
3701.69,0.992748
3704.1,0.990895
3706.51,0.990118
3708.92,0.992006
3711.33,0.992077
3713.74,0.994639
3716.16,0.995947
3718.57,0.997647
3720.98,0.999331
3723.39,0.996482
3725.8,0.994421
3728.21,0.994952
3730.62,0.99581
3733.03,0.996937
3735.44,0.998768
3737.85,0.999515
3740.26,0.996418
3742.67,0.993023
3745.08,0.992916
3747.49,0.995454
3749.9,0.997599
3752.31,0.997981
3754.72,0.994818
3757.14,0.991744
3759.55,0.993618
3761.96,0.994393
3764.37,0.992384
3766.78,0.993318
3769.19,0.995167
3771.6,0.994064
3774.01,0.993093
3776.42,0.99391
3778.83,0.991172
3781.24,0.99149
3783.65,0.99328
3786.06,0.993734
3788.47,0.99297
3790.88,0.994238
3793.29,0.996079
3795.7,0.994939
3798.12,0.991589
3800.53,0.990698
3802.94,0.994314
3805.35,0.995051
3807.76,0.995419
3810.17,0.995918
3812.58,0.9957
3814.99,0.995499
3817.4,0.995349
3819.81,0.995773
3822.22,0.995736
3824.63,0.99787
3827.04,0.997401
3829.45,0.998904
3831.86,0.999873
3834.27,0.996774
3836.68,0.995058
3839.1,0.996076
3841.51,0.998221
3843.92,0.998028
3846.33,0.996747
3848.74,0.996968
3851.15,0.996283
3853.56,0.996064
3855.97,0.996234
3858.38,0.997752
3860.79,0.997591
3863.2,0.996301
3865.61,0.99797
3868.02,0.997614
3870.43,0.996282
3872.84,0.993916
3875.25,0.993628
3877.66,0.994047
3880.08,0.995429
3882.49,0.995678
3884.9,0.995766
3887.31,0.995264
3889.72,0.994943
3892.13,0.996004
3894.54,0.995361
3896.95,0.995433
3899.36,0.994548
3901.77,0.993633
3904.18,0.993423
3906.59,0.993677
3909,0.991908
3911.41,0.991537
3913.82,0.994936
3916.23,0.994528
3918.64,0.994574
3921.05,0.996756
3923.47,0.996496
3925.88,0.992118
3928.29,0.990629
3930.7,0.9918
3933.11,0.992866
3935.52,0.993406
3937.93,0.993318
3940.34,0.992405
3942.75,0.991353
3945.16,0.991779
3947.57,0.992778
3949.98,0.991384
3952.39,0.992818
3954.8,0.993254
3957.21,0.992546
3959.62,0.991761
3962.03,0.99264
3964.45,0.993519
3966.86,0.991921
3969.27,0.992623
3971.68,0.991872
3974.09,0.991445
3976.5,0.993635
3978.91,0.993549
3981.32,0.989779
3983.73,0.990732
3986.14,0.992684
3988.55,0.992843
3990.96,0.991963
3993.37,0.993053
3995.78,0.992589
3998.19,0.992222
4000.12,0.993257