File: FTIR_data/Silicone.csv
449.815,0.413152
452.225,0.385969
454.636,0.368919
457.047,0.355851
459.457,0.349244
461.868,0.343093
464.278,0.338131
466.689,0.33102
469.1,0.329149
471.51,0.340333
473.921,0.346177
476.331,0.355987
478.742,0.365742
481.152,0.384303
483.563,0.402302
485.974,0.418456
488.384,0.443312
490.795,0.477174
493.205,0.511533
495.616,0.539878
498.027,0.56437
500.437,0.594867
502.848,0.622849
505.258,0.648978
507.669,0.669667
510.079,0.689907
512.49,0.708082
514.901,0.723273
517.311,0.735404
519.722,0.743943
522.132,0.754271
524.543,0.765281
526.954,0.768169
529.364,0.772596
531.775,0.772432
534.185,0.777198
536.596,0.780977
539.006,0.781162
541.417,0.780657
543.828,0.785052
546.238,0.784586
548.649,0.783162
551.059,0.78411
553.47,0.786884
555.881,0.788363
558.291,0.789042
560.702,0.791751
563.112,0.792538
565.523,0.792906
567.933,0.792622
570.344,0.793458
572.755,0.792544
575.165,0.793059
577.576,0.792586
579.986,0.794687
582.397,0.796092
584.808,0.797055
587.218,0.797508
589.629,0.799221
592.039,0.798862
594.45,0.798985
596.86,0.801735
599.271,0.801204
601.682,0.800438
604.092,0.800076
606.503,0.799643
608.913,0.79804
611.324,0.798143
613.735,0.797789
616.145,0.796612
618.556,0.796391
620.966,0.796262
623.377,0.795736
625.787,0.794935
628.198,0.794243
630.609,0.793524
633.019,0.792838
635.43,0.792658
637.84,0.791861
640.251,0.792087
642.662,0.792346
645.072,0.791323
647.483,0.78706
649.893,0.77884
652.304,0.769409
654.714,0.754221
657.125,0.724991
659.536,0.671679
661.946,0.598908
664.357,0.561088
666.767,0.574628
669.178,0.592917
671.589,0.599922
673.999,0.608398
676.41,0.608914
678.82,0.604494
681.231,0.596294
683.641,0.584831
686.052,0.572898
688.463,0.565378
690.873,0.565671
693.284,0.569767
695.694,0.572913
698.105,0.572085
700.516,0.567703
702.926,0.563776
705.337,0.564716
707.747,0.571894
710.158,0.587488
712.568,0.613516
714.979,0.644893
717.39,0.671857
719.8,0.687227
722.211,0.691245
724.621,0.687039
727.032,0.679194
729.443,0.668094
731.853,0.655183
734.264,0.639704
736.674,0.622168
739.085,0.602413
741.495,0.580048
743.906,0.558544
746.317,0.538575
748.727,0.517917
751.138,0.494997
753.548,0.469378
755.959,0.440831
758.37,0.409139
760.78,0.373644
763.191,0.334502
765.601,0.292721
768.012,0.247238
770.422,0.199952
772.833,0.153743
775.244,0.110678
777.654,0.0731736
780.065,0.0440001
782.475,0.023014
784.886,0.00882034
787.297,0.00140213
789.707,0.000327498
792.118,0.00697058
794.528,0.0203845
796.939,0.0391423
799.349,0.0625821
801.76,0.0908154
804.171,0.125788
806.581,0.167159
808.992,0.210978
811.402,0.254476
813.813,0.293316
816.224,0.327431
818.634,0.357663
821.045,0.387517
823.455,0.42381
825.866,0.47106
828.276,0.526138
830.687,0.58101
833.098,0.626477
835.508,0.660302
837.919,0.683889
840.329,0.700364
842.74,0.712296
845.151,0.719563
847.561,0.723542
849.972,0.724721
852.382,0.7234
854.793,0.719007
857.203,0.710634
859.614,0.697768
862.025,0.682709
864.435,0.668435
866.846,0.659492
869.256,0.657574
871.667,0.661278
874.078,0.668693
876.488,0.677853
878.899,0.689912
881.309,0.705901
883.72,0.726545
886.13,0.749396
888.541,0.771866
890.952,0.791749
893.362,0.807877
895.773,0.820782
898.183,0.831462
900.594,0.839858
903.005,0.84685
905.415,0.852407
907.826,0.857352
910.236,0.860856
912.647,0.863617
915.057,0.866515
917.468,0.869115
919.879,0.870276
922.289,0.8707
924.7,0.870822
927.11,0.869886
929.521,0.868218
931.932,0.865723
934.342,0.862224
936.753,0.857249
939.163,0.850863
941.574,0.843074
943.984,0.833493
946.395,0.822319
948.806,0.808976
951.216,0.792923
953.627,0.774603
956.037,0.753785
958.448,0.730333
960.859,0.704247
963.269,0.675762
965.68,0.645077
968.09,0.611951
970.501,0.576634
972.911,0.538902
975.322,0.49857
977.733,0.456424
980.143,0.411995
982.554,0.366009
984.964,0.31944
987.375,0.272427
989.786,0.226548
992.196,0.182971
994.607,0.142414
997.017,0.107005
999.428,0.0771981
1001.84,0.0527693
1004.25,0.0345716
1006.66,0.0218668
1009.07,0.0152134
1011.48,0.0142551
1013.89,0.0187169
1016.3,0.0296551
1018.71,0.0456154
1021.12,0.0648121
1023.53,0.0851628
1025.94,0.104289
1028.35,0.121696
1030.77,0.136455
1033.18,0.148437
1035.59,0.158531
1038,0.167054
1040.41,0.174144
1042.82,0.180177
1045.23,0.184634
1047.64,0.188314
1050.05,0.191298
1052.46,0.193306
1054.87,0.194976
1057.28,0.196083
1059.69,0.196365
1062.1,0.196876
1064.51,0.196829
1066.92,0.196935
1069.33,0.197494
1071.75,0.198087
1074.16,0.199319
1076.57,0.20094
1078.98,0.203337
1081.39,0.206921
1083.8,0.211641
1086.21,0.218305
1088.62,0.227102
1091.03,0.238014
1093.44,0.252237
1095.85,0.268932
1098.26,0.288702
1100.67,0.312156
1103.08,0.338438
1105.49,0.366769
1107.9,0.396028
1110.31,0.425631
1112.73,0.45516
1115.14,0.482999
1117.55,0.508637
1119.96,0.532043
1122.37,0.552744
1124.78,0.570753
1127.19,0.586114
1129.6,0.598752
1132.01,0.610016
1134.42,0.61955
1136.83,0.627662
1139.24,0.634886
1141.65,0.641781
1144.06,0.648102
1146.47,0.654195
1148.88,0.659959
1151.29,0.665222
1153.71,0.670311
1156.12,0.674782
1158.53,0.679141
1160.94,0.683527
1163.35,0.687466
1165.76,0.691465
1168.17,0.695381
1170.58,0.699399
1172.99,0.703294
1175.4,0.707264
1177.81,0.711488
1180.22,0.715337
1182.63,0.719569
1185.04,0.72375
1187.45,0.727459
1189.86,0.731123
1192.27,0.734469
1194.69,0.738013
1197.1,0.741362
1199.51,0.744593
1201.92,0.748107
1204.33,0.751328
1206.74,0.75456
1209.15,0.757628
1211.56,0.760702
1213.97,0.763711
1216.38,0.766983
1218.79,0.770261
1221.2,0.774032
1223.61,0.778128
1226.02,0.782528
1228.43,0.787131
1230.84,0.791888
1233.25,0.79611
1235.67,0.799393
1238.08,0.8023
1240.49,0.804466
1242.9,0.804886
1245.31,0.803019
1247.72,0.798528
1250.13,0.787972
1252.54,0.766872
1254.95,0.728759
1257.36,0.661514
1259.77,0.549805
1262.18,0.42336
1264.59,0.354675
1267,0.373901
1269.41,0.463338
1271.82,0.587623
1274.23,0.706456
1276.64,0.793124
1279.06,0.84618
1281.47,0.877417
1283.88,0.896081
1286.29,0.907917
1288.7,0.916394
1291.11,0.922323
1293.52,0.926653
1295.93,0.930551
1298.34,0.934111
1300.75,0.9368
1303.16,0.939477
1305.57,0.941817
1307.98,0.943765
1310.39,0.945629
1312.8,0.94724
1315.21,0.948392
1317.62,0.948937
1320.04,0.949255
1322.45,0.949702
1324.86,0.950499
1327.27,0.951621
1329.68,0.952653
1332.09,0.952884
1334.5,0.953691
1336.91,0.954198
1339.32,0.954302
1341.73,0.954316
1344.14,0.954514
1346.55,0.955026
1348.96,0.955171
1351.37,0.955001
1353.78,0.955569
1356.19,0.955775
1358.6,0.956209
1361.02,0.956401
1363.43,0.955898
1365.84,0.955835
1368.25,0.955248
1370.66,0.955193
1373.07,0.95522
1375.48,0.954928
1377.89,0.954628
1380.3,0.954026
1382.71,0.95395
1385.12,0.954066
1387.53,0.953307
1389.94,0.952561
1392.35,0.950832
1394.76,0.949344
1397.17,0.947239
1399.58,0.942056
1402,0.936911
1404.41,0.930444
1406.82,0.925313
1409.23,0.923781
1411.64,0.923726
1414.05,0.922868
1416.46,0.918865
1418.87,0.91449
1421.28,0.914122
1423.69,0.916846
1426.1,0.92226
1428.51,0.932915
1430.92,0.939353
1433.33,0.944277
1435.74,0.94618
1438.15,0.948344
1440.56,0.949964
1442.98,0.948987
1445.39,0.949459
1447.8,0.948884
1450.21,0.946737
1452.62,0.944556
1455.03,0.944271
1457.44,0.946595
1459.85,0.948621
1462.26,0.950924
1464.67,0.954392
1467.08,0.957552
1469.49,0.957492
1471.9,0.957914
1474.31,0.96006
1476.72,0.959349
1479.13,0.957742
1481.54,0.959434
1483.96,0.959749
1486.37,0.958104
1488.78,0.957505
1491.19,0.958344
1493.6,0.958606
1496.01,0.957819
1498.42,0.958982
1500.83,0.960801
1503.24,0.958902
1505.65,0.959129
1508.06,0.9607
1510.47,0.960505
1512.88,0.958679
1515.29,0.960132
1517.7,0.962486
1520.11,0.960647
1522.52,0.95952
1524.94,0.960948
1527.35,0.96097
1529.76,0.959261
1532.17,0.96063
1534.58,0.96166
1536.99,0.96152
1539.4,0.959198
1541.81,0.959746
1544.22,0.962034
1546.63,0.958868
1549.04,0.959618
1551.45,0.962457
1553.86,0.962676
1556.27,0.961571
1558.68,0.96037
1561.09,0.960744
1563.5,0.959918
1565.91,0.957601
1568.33,0.961227
1570.74,0.961557
1573.15,0.95988
1575.56,0.959877
1577.97,0.959746
1580.38,0.959768
1582.79,0.957599
1585.2,0.959127
1587.61,0.96071
1590.02,0.958874
1592.43,0.958933
1594.84,0.959166
1597.25,0.958444
1599.66,0.957039
1602.07,0.957319
1604.48,0.958585
1606.89,0.958353
1609.31,0.957789
1611.72,0.958272
1614.13,0.958795
1616.54,0.956967
1618.95,0.956007
1621.36,0.957735
1623.77,0.957511
1626.18,0.958703
1628.59,0.95971
1631,0.959256
1633.41,0.959843
1635.82,0.958878
1638.23,0.95986
1640.64,0.960347
1643.05,0.957965
1645.46,0.960494
1647.87,0.960348
1650.29,0.959974
1652.7,0.9594
1655.11,0.958875
1657.52,0.960568
1659.93,0.958222
1662.34,0.960622
1664.75,0.963257
1667.16,0.96082
1669.57,0.960673
1671.98,0.961893
1674.39,0.962414
1676.8,0.960506
1679.21,0.960884
1681.62,0.962758
1684.03,0.962094
1686.44,0.961764
1688.85,0.961537
1691.27,0.961482
1693.68,0.963175
1696.09,0.962769
1698.5,0.961782
1700.91,0.963278
1703.32,0.961336
1705.73,0.960821
1708.14,0.960486
1710.55,0.962622
1712.96,0.962301
1715.37,0.961245
1717.78,0.962517
1720.19,0.962379
1722.6,0.961381
1725.01,0.960891
1727.42,0.962571
1729.83,0.963896
1732.25,0.9624
1734.66,0.962428
1737.07,0.962421
1739.48,0.962179
1741.89,0.960713
1744.3,0.96271
1746.71,0.963638
1749.12,0.963577
1751.53,0.964068
1753.94,0.963968
1756.35,0.963918
1758.76,0.963041
1761.17,0.96349
1763.58,0.963327
1765.99,0.963077
1768.4,0.964365
1770.81,0.964073
1773.23,0.963952
1775.64,0.962598
1778.05,0.962851
1780.46,0.962805
1782.87,0.962841
1785.28,0.964047
1787.69,0.964383
1790.1,0.964697
1792.51,0.963558
1794.92,0.962681
1797.33,0.963512
1799.74,0.96362
1802.15,0.964148
1804.56,0.965355
1806.97,0.965529
1809.38,0.965289
1811.79,0.965607
1814.21,0.965016
1816.62,0.965284
1819.03,0.965492
1821.44,0.966403
1823.85,0.966275
1826.26,0.965778
1828.67,0.96677
1831.08,0.96691
1833.49,0.965446
1835.9,0.965582
1838.31,0.96574
1840.72,0.966645
1843.13,0.966587
1845.54,0.966246
1847.95,0.967268
1850.36,0.96638
1852.77,0.965098
1855.18,0.966169
1857.6,0.966266
1860.01,0.965149
1862.42,0.965286
1864.83,0.966168
1867.24,0.965952
1869.65,0.965785
1872.06,0.96576
1874.47,0.966328
1876.88,0.965682
1879.29,0.965031
1881.7,0.965573
1884.11,0.966496
1886.52,0.966169
1888.93,0.965933
1891.34,0.965756
1893.75,0.966501
1896.16,0.966773
1898.58,0.966646
1900.99,0.966865
1903.4,0.965787
1905.81,0.96591
1908.22,0.966543
1910.63,0.965636
1913.04,0.964887
1915.45,0.966379
1917.86,0.967623
1920.27,0.96594
1922.68,0.96522
1925.09,0.965523
1927.5,0.96553
1929.91,0.966723
1932.32,0.966306
1934.73,0.965685
1937.14,0.96548
1939.56,0.964914
1941.97,0.963798
1944.38,0.963986
1946.79,0.965174
1949.2,0.964917
1951.61,0.963217
1954.02,0.962568
1956.43,0.962816
1958.84,0.962962
1961.25,0.966408
1963.66,0.967496
1966.07,0.967511
1968.48,0.967386
1970.89,0.967211
1973.3,0.967558
1975.71,0.966728
1978.12,0.969644
1980.54,0.970885
1982.95,0.970652
1985.36,0.969105
1987.77,0.970956
1990.18,0.970661
1992.59,0.967251
1995,0.969356
1997.41,0.970632
1999.82,0.971577
2002.23,0.973017
2004.64,0.971497
2007.05,0.970976
2009.46,0.97299
2011.87,0.973992
2014.28,0.973733
2016.69,0.972945
2019.1,0.972749
2021.52,0.976334
2023.93,0.979497
2026.34,0.980162
2028.75,0.979176
2031.16,0.979079
2033.57,0.979927
2035.98,0.979404
2038.39,0.978354
2040.8,0.978541
2043.21,0.980239
2045.62,0.979094
2048.03,0.977489
2050.44,0.977337
2052.85,0.975355
2055.26,0.973345
2057.67,0.973088
2060.08,0.973497
2062.5,0.973731
2064.91,0.973194
2067.32,0.972482
2069.73,0.97387
2072.14,0.973705
2074.55,0.972372
2076.96,0.97222
2079.37,0.972686
2081.78,0.973869
2084.19,0.973593
2086.6,0.973741
2089.01,0.974965
2091.42,0.975848
2093.83,0.976005
2096.24,0.975264
2098.65,0.973217
2101.06,0.973032
2103.48,0.974597
2105.89,0.975517
2108.3,0.97458
2110.71,0.973698
2113.12,0.973446
2115.53,0.974457
2117.94,0.975859
2120.35,0.975776
2122.76,0.976103
2125.17,0.975853
2127.58,0.976363
2129.99,0.975382
2132.4,0.975355
2134.81,0.976309
2137.22,0.977023
2139.63,0.978562
2142.04,0.980136
2144.45,0.980734
2146.87,0.979331
2149.28,0.981348
2151.69,0.98385
2154.1,0.984458
2156.51,0.984139
2158.92,0.986002
2161.33,0.987299
2163.74,0.990386
2166.15,0.992914
2168.56,0.993676
2170.97,0.999122
2173.38,0.998951
2175.79,0.994722
2178.2,0.990066
2180.61,0.989878
2183.02,0.990141
2185.43,0.986988
2187.85,0.985829
2190.26,0.987003
2192.67,0.985261
2195.08,0.984632
2197.49,0.985291
2199.9,0.983961
2202.31,0.984515
2204.72,0.984639
2207.13,0.984368
2209.54,0.983433
2211.95,0.98434
2214.36,0.984511
2216.77,0.985205
2219.18,0.984835
2221.59,0.984061
2224,0.982268
2226.41,0.980435
2228.83,0.980983
2231.24,0.980509
2233.65,0.980134
2236.06,0.980312
2238.47,0.979491
2240.88,0.97682
2243.29,0.978185
2245.7,0.978468
2248.11,0.977592
2250.52,0.977054
2252.93,0.977158
2255.34,0.977496
2257.75,0.977869
2260.16,0.978793
2262.57,0.978749
2264.98,0.979423
2267.39,0.979032
2269.81,0.978308
2272.22,0.978111
2274.63,0.97693
2277.04,0.976197
2279.45,0.975899
2281.86,0.975197
2284.27,0.973402
2286.68,0.972096
2289.09,0.972147
2291.5,0.973278
2293.91,0.973401
2296.32,0.973513
2298.73,0.973536
2301.14,0.97324
2303.55,0.972432
2305.96,0.972133
2308.37,0.971512
2310.79,0.970624
2313.2,0.969713
2315.61,0.969551
2318.02,0.968972
2320.43,0.967799
2322.84,0.967022
2325.25,0.966216
2327.66,0.964861
2330.07,0.962926
2332.48,0.961546
2334.89,0.959747
2337.3,0.957576
2339.71,0.956515
2342.12,0.955984
2344.53,0.956309
2346.94,0.956604
2349.35,0.957
2351.77,0.95776
2354.18,0.958062
2356.59,0.95814
2359,0.959772
2361.41,0.961408
2363.82,0.957348
2366.23,0.953162
2368.64,0.950079
2371.05,0.946868
2373.46,0.94661
2375.87,0.947428
2378.28,0.948625
2380.69,0.951003
2383.1,0.954883
2385.51,0.959269
2387.92,0.962176
2390.33,0.963975
2392.75,0.966135
2395.16,0.969318
2397.57,0.971043
2399.98,0.971087
2402.39,0.971552
2404.8,0.972329
2407.21,0.9721
2409.62,0.972914
2412.03,0.974257
2414.44,0.974923
2416.85,0.975083
2419.26,0.975693
2421.67,0.97612
2424.08,0.975844
2426.49,0.975302
2428.9,0.975553
2431.31,0.975399
2433.72,0.974969
2436.14,0.974935
2438.55,0.97499
2440.96,0.974757
2443.37,0.974051
2445.78,0.973029
2448.19,0.973313
2450.6,0.973407
2453.01,0.972934
2455.42,0.973028
2457.83,0.972622
2460.24,0.973141
2462.65,0.973419
2465.06,0.973967
2467.47,0.974276
2469.88,0.974918
2472.29,0.974799
2474.7,0.974588
2477.12,0.974393
2479.53,0.974321
2481.94,0.97374
2484.35,0.973492
2486.76,0.973795
2489.17,0.974132
2491.58,0.974212
2493.99,0.974005
2496.4,0.974412
2498.81,0.974142
2501.22,0.974389
2503.63,0.974708
2506.04,0.974623
2508.45,0.974111
2510.86,0.973794
2513.27,0.973727
2515.68,0.973998
2518.1,0.974361
2520.51,0.974493
2522.92,0.975032
2525.33,0.975012
2527.74,0.974862
2530.15,0.975022
2532.56,0.975367
2534.97,0.975338
2537.38,0.975064
2539.79,0.975654
2542.2,0.97513
2544.61,0.974842
2547.02,0.974673
2549.43,0.973945
2551.84,0.974748
2554.25,0.975598
2556.66,0.974937
2559.08,0.974635
2561.49,0.974887
2563.9,0.97457
2566.31,0.974028
2568.72,0.974348
2571.13,0.974338
2573.54,0.974252
2575.95,0.973986
2578.36,0.974015
2580.77,0.974178
2583.18,0.974163
2585.59,0.9742
2588,0.97438
2590.41,0.974267
2592.82,0.974266
2595.23,0.9745
2597.64,0.974123
2600.06,0.974209
2602.47,0.974181
2604.88,0.973739
2607.29,0.973619
2609.7,0.973667
2612.11,0.973754
2614.52,0.973413
2616.93,0.973449
2619.34,0.973239
2621.75,0.973049
2624.16,0.973262
2626.57,0.97276
2628.98,0.97276
2631.39,0.972781
2633.8,0.972661
2636.21,0.972756
2638.62,0.97222
2641.04,0.971724
2643.45,0.971466
2645.86,0.971423
2648.27,0.97116
2650.68,0.97088
2653.09,0.970859
2655.5,0.970781
2657.91,0.970707
2660.32,0.970726
2662.73,0.970598
2665.14,0.970573
2667.55,0.970438
2669.96,0.970062
2672.37,0.969808
2674.78,0.970007
2677.19,0.970132
2679.6,0.970229
2682.02,0.970348
2684.43,0.97062
2686.84,0.970766
2689.25,0.970851
2691.66,0.970855
2694.07,0.97083
2696.48,0.970995
2698.89,0.971213
2701.3,0.971049
2703.71,0.971011
2706.12,0.971367
2708.53,0.971462
2710.94,0.971337
2713.35,0.971215
2715.76,0.971329
2718.17,0.971043
2720.58,0.970708
2722.99,0.970544
2725.41,0.970626
2727.82,0.970768
2730.23,0.971006
2732.64,0.971031
2735.05,0.970871
2737.46,0.971129
2739.87,0.971265
2742.28,0.970816
2744.69,0.970853
2747.1,0.971103
2749.51,0.970878
2751.92,0.970974
2754.33,0.97099
2756.74,0.970823
2759.15,0.970826
2761.56,0.971032
2763.97,0.970911
2766.39,0.970671
2768.8,0.970503
2771.21,0.970396
2773.62,0.970418
2776.03,0.970462
2778.44,0.970237
2780.85,0.970025
2783.26,0.969959
2785.67,0.969837
2788.08,0.969544
2790.49,0.969448
2792.9,0.969065
2795.31,0.968594
2797.72,0.968287
2800.13,0.96797
2802.54,0.96738
2804.95,0.966936
2807.37,0.966809
2809.78,0.966569
2812.19,0.966305
2814.6,0.96657
2817.01,0.966608
2819.42,0.966699
2821.83,0.966498
2824.24,0.966596
2826.65,0.966374
2829.06,0.966527
2831.47,0.966534
2833.88,0.966308
2836.29,0.966691
2838.7,0.966654
2841.11,0.966479
2843.52,0.966711
2845.93,0.966731
2848.35,0.966749
2850.76,0.966827
2853.17,0.967029
2855.58,0.966817
2857.99,0.967358
2860.4,0.967822
2862.81,0.968016
2865.22,0.968162
2867.63,0.968001
2870.04,0.968105
2872.45,0.96824
2874.86,0.968013
2877.27,0.967795
2879.68,0.967689
2882.09,0.967001
2884.5,0.967208
2886.91,0.967161
2889.33,0.966472
2891.74,0.966376
2894.15,0.966378
2896.56,0.965314
2898.97,0.964486
2901.38,0.963848
2903.79,0.963039
2906.2,0.961969
2908.61,0.960623
2911.02,0.958451
2913.43,0.955606
2915.84,0.953132
2918.25,0.950557
2920.66,0.947814
2923.07,0.946775
2925.48,0.948218
2927.89,0.950923
2930.31,0.95373
2932.72,0.956277
2935.13,0.957708
2937.54,0.95885
2939.95,0.959869
2942.36,0.959644
2944.77,0.959422
2947.18,0.958425
2949.59,0.956433
2952,0.954536
2954.41,0.952274
2956.82,0.948997
2959.23,0.944931
2961.64,0.938723
2964.05,0.930672
2966.46,0.91931
2968.87,0.902899
2971.29,0.879293
2973.7,0.847771
2976.11,0.813509
2978.52,0.789175
2980.93,0.786189
2983.34,0.80541
2985.75,0.835764
2988.16,0.86654
2990.57,0.892887
2992.98,0.913205
2995.39,0.928259
2997.8,0.9382
3000.21,0.945344
3002.62,0.950715
3005.03,0.954915
3007.44,0.957853
3009.85,0.959548
3012.27,0.960602
3014.68,0.961464
3017.09,0.962861
3019.5,0.964409
3021.91,0.965202
3024.32,0.96552
3026.73,0.965728
3029.14,0.965807
3031.55,0.965014
3033.96,0.964887
3036.37,0.964934
3038.78,0.964808
3041.19,0.964803
3043.6,0.965113
3046.01,0.965072
3048.42,0.965265
3050.83,0.965183
3053.24,0.965063
3055.66,0.964948
3058.07,0.965025
3060.48,0.965107
3062.89,0.965635
3065.3,0.966246
3067.71,0.965842
3070.12,0.966294
3072.53,0.966831
3074.94,0.966484
3077.35,0.966317
3079.76,0.966205
3082.17,0.966157
3084.58,0.966196
3086.99,0.966308
3089.4,0.966385
3091.81,0.966449
3094.22,0.966147
3096.64,0.965985
3099.05,0.966232
3101.46,0.966508
3103.87,0.966672
3106.28,0.966881
3108.69,0.966827
3111.1,0.966683
3113.51,0.966486
3115.92,0.9667
3118.33,0.966429
3120.74,0.966224
3123.15,0.966409
3125.56,0.966696
3127.97,0.966266
3130.38,0.966588
3132.79,0.966645
3135.2,0.966502
3137.62,0.966897
3140.03,0.96675
3142.44,0.966898
3144.85,0.966858
3147.26,0.967387
3149.67,0.967702
3152.08,0.967612
3154.49,0.967771
3156.9,0.967984
3159.31,0.96806
3161.72,0.968141
3164.13,0.968169
3166.54,0.968185
3168.95,0.968391
3171.36,0.968781
3173.77,0.968486
3176.18,0.96864
3178.6,0.968424
3181.01,0.968306
3183.42,0.968755
3185.83,0.968792
3188.24,0.969252
3190.65,0.96911
3193.06,0.968942
3195.47,0.969108
3197.88,0.96924
3200.29,0.969233
3202.7,0.96941
3205.11,0.969919
3207.52,0.97019
3209.93,0.969688
3212.34,0.969042
3214.75,0.968614
3217.16,0.968621
3219.58,0.968736
3221.99,0.968837
3224.4,0.969205
3226.81,0.969093
3229.22,0.969242
3231.63,0.969314
3234.04,0.970209
3236.45,0.969957
3238.86,0.969791
3241.27,0.969539
3243.68,0.96909
3246.09,0.969503
3248.5,0.969393
3250.91,0.969477
3253.32,0.970027
3255.73,0.970459
3258.14,0.969383
3260.56,0.969418
3262.97,0.96991
3265.38,0.969469
3267.79,0.969849
3270.2,0.970182
3272.61,0.969925
3275.02,0.969878
3277.43,0.969973
3279.84,0.970346
3282.25,0.970994
3284.66,0.970168
3287.07,0.970018
3289.48,0.970366
3291.89,0.969727
3294.3,0.969278
3296.71,0.969024
3299.12,0.969588
3301.54,0.970446
3303.95,0.970323
3306.36,0.970256
3308.77,0.969765
3311.18,0.969665
3313.59,0.970405
3316,0.970573
3318.41,0.969956
3320.82,0.970428
3323.23,0.969715
3325.64,0.969156
3328.05,0.969474
3330.46,0.969526
3332.87,0.970179
3335.28,0.970268
3337.69,0.970109
3340.1,0.970341
3342.51,0.970154
3344.93,0.970224
3347.34,0.970661
3349.75,0.97025
3352.16,0.970521
3354.57,0.970095
3356.98,0.969457
3359.39,0.970143
3361.8,0.970618
3364.21,0.970727
3366.62,0.970327
3369.03,0.970406
3371.44,0.970462
3373.85,0.970733
3376.26,0.970624
3378.67,0.969947
3381.08,0.970381
3383.49,0.970651
3385.91,0.970619
3388.32,0.970365
3390.73,0.970452
3393.14,0.970699
3395.55,0.970329
3397.96,0.970005
3400.37,0.970106
3402.78,0.970297
3405.19,0.970298
3407.6,0.970915
3410.01,0.970808
3412.42,0.969755
3414.83,0.969845
3417.24,0.971773
3419.65,0.97134
3422.06,0.970718
3424.47,0.970556
3426.89,0.969821
3429.3,0.970183
3431.71,0.970763
3434.12,0.971214
3436.53,0.970642
3438.94,0.970496
3441.35,0.971225
3443.76,0.971136
3446.17,0.971103
3448.58,0.971164
3450.99,0.969788
3453.4,0.969516
3455.81,0.969985
3458.22,0.970894
3460.63,0.971289
3463.04,0.970905
3465.45,0.97067
3467.87,0.970042
3470.28,0.970155
3472.69,0.970663
3475.1,0.970464
3477.51,0.9708
3479.92,0.971128
3482.33,0.970731
3484.74,0.970161
3487.15,0.969293
3489.56,0.969134
3491.97,0.97007
3494.38,0.970248
3496.79,0.971116
3499.2,0.971439
3501.61,0.971562
3504.02,0.9701
3506.43,0.969463
3508.85,0.970431
3511.26,0.970506
3513.67,0.970594
3516.08,0.971307
3518.49,0.970908
3520.9,0.970643
3523.31,0.971257
3525.72,0.971023
3528.13,0.971349
3530.54,0.972048
3532.95,0.973035
3535.36,0.97245
3537.77,0.971686
3540.18,0.971648
3542.59,0.971379
3545,0.969758
3547.41,0.969611
3549.83,0.970499
3552.24,0.970812
3554.65,0.971692
3557.06,0.971709
3559.47,0.971131
3561.88,0.970749
3564.29,0.970805
3566.7,0.971408
3569.11,0.97053
3571.52,0.970357
3573.93,0.971009
3576.34,0.969957
3578.75,0.96915
3581.16,0.969464
3583.57,0.968524
3585.98,0.968534
3588.39,0.970474
3590.81,0.971272
3593.22,0.971061
3595.63,0.970406
3598.04,0.970506
3600.45,0.969869
3602.86,0.968344
3605.27,0.967737
3607.68,0.969959
3610.09,0.970663
3612.5,0.968955
3614.91,0.968637
3617.32,0.970621
3619.73,0.969256
3622.14,0.968087
3624.55,0.968691
3626.96,0.969161
3629.37,0.968405
3631.78,0.966348
3634.2,0.96701
3636.61,0.968254
3639.02,0.968789
3641.43,0.969779
3643.84,0.969219
3646.25,0.967782
3648.66,0.967471
3651.07,0.969206
3653.48,0.968535
3655.89,0.968915
3658.3,0.968571
3660.71,0.967848
3663.12,0.966725
3665.53,0.966598
3667.94,0.967681
3670.35,0.968941
3672.76,0.970437
3675.18,0.9699
3677.59,0.970905
3680,0.970596
3682.41,0.968081
3684.82,0.967664
3687.23,0.968104
3689.64,0.967648
3692.05,0.969475
3694.46,0.966387
3696.87,0.970127
3699.28,0.971784
3701.69,0.96863
3704.1,0.967411
3706.51,0.967136
3708.92,0.967296
3711.33,0.969656
3713.74,0.969064
3716.16,0.968106
3718.57,0.965948
3720.98,0.964307
3723.39,0.966644
3725.8,0.965395
3728.21,0.963154
3730.62,0.966301
3733.03,0.97046
3735.44,0.970433
3737.85,0.968751
3740.26,0.9688
3742.67,0.968684
3745.08,0.967487
3747.49,0.966668
3749.9,0.967407
3752.31,0.967099
3754.72,0.968954
3757.14,0.969644
3759.55,0.971063
3761.96,0.967616
3764.37,0.965205
3766.78,0.970791
3769.19,0.968772
3771.6,0.968727
3774.01,0.971065
3776.42,0.969061
3778.83,0.965093
3781.24,0.964731
3783.65,0.965998
3786.06,0.965081
3788.47,0.964943
3790.88,0.966276
3793.29,0.969255
3795.7,0.968259
3798.12,0.965885
3800.53,0.966479
3802.94,0.968001
3805.35,0.968504
3807.76,0.970112
3810.17,0.969984
3812.58,0.969383
3814.99,0.968643
3817.4,0.969215
3819.81,0.969731
3822.22,0.968153
3824.63,0.971856
3827.04,0.97091
3829.45,0.971302
3831.86,0.96995
3834.27,0.967676
3836.68,0.966874
3839.1,0.968477
3841.51,0.967221
3843.92,0.971906
3846.33,0.969009
3848.74,0.968882
3851.15,0.969143
3853.56,0.968854
3855.97,0.968216
3858.38,0.967531
3860.79,0.970449
3863.2,0.97113
3865.61,0.970107
3868.02,0.969452
3870.43,0.967544
3872.84,0.965496
3875.25,0.969676
3877.66,0.972754
3880.08,0.969575
3882.49,0.967996
3884.9,0.968543
3887.31,0.96944
3889.72,0.968052
3892.13,0.970174
3894.54,0.970299
3896.95,0.970369
3899.36,0.969194
3901.77,0.968413
3904.18,0.97077
3906.59,0.968314
3909,0.968685
3911.41,0.968907
3913.82,0.970603
3916.23,0.970593
3918.64,0.967328
3921.05,0.968105
3923.47,0.969736
3925.88,0.968467
3928.29,0.968892
3930.7,0.968446
3933.11,0.968744
3935.52,0.969109
3937.93,0.968623
3940.34,0.969352
3942.75,0.96922
3945.16,0.968025
3947.57,0.968894
3949.98,0.969376
3952.39,0.9689
3954.8,0.968908
3957.21,0.96876
3959.62,0.969139
3962.03,0.969135
3964.45,0.968973
3966.86,0.969135
3969.27,0.968613
3971.68,0.96945
3974.09,0.969112
3976.5,0.968825
3978.91,0.96842
3981.32,0.967608
3983.73,0.967537
3986.14,0.969223
3988.55,0.96916
3990.96,0.968307
3993.37,0.967635
3995.78,0.96826
3998.19,0.969192
4000.12,0.969035